------------ Data File Created By ActiGraph GT3X+ ActiLife v6.13.3 Firmware v2.5.0 date format M/d/yyyy at 40 Hz  Filter Normal -----------
Serial Number: CLE2B20130009
Start Time 11:27:00
Start Date 6/14/2018
Epoch Period (hh:mm:ss) 00:00:00
Download Time 15:16:42
Download Date 6/14/2018
Current Memory Address: 0
Current Battery Voltage: 4.21     Mode = 12
--------------------------------------------------
Timestamp,Accelerometer X,Accelerometer Y,Accelerometer Z
6/14/2018 12:08:39.725,-0.009,-0.053,-0.988
6/14/2018 12:08:39.750,-0.009,-0.053,-0.982
6/14/2018 12:08:39.775,-0.009,-0.053,-0.988
6/14/2018 12:08:39.800,-0.009,-0.053,-0.982
6/14/2018 12:08:39.825,-0.009,-0.053,-0.982
6/14/2018 12:08:39.850,-0.009,-0.056,-0.988
6/14/2018 12:08:39.875,-0.009,-0.053,-0.988
6/14/2018 12:08:39.900,-0.003,-0.053,-0.988
6/14/2018 12:08:39.925,-0.009,-0.056,-0.982
6/14/2018 12:08:39.950,-0.009,-0.053,-0.982
6/14/2018 12:08:39.975,-0.009,-0.056,-0.982
6/14/2018 12:08:40.000,-0.009,-0.047,-0.988
6/14/2018 12:08:40.025,-0.009,-0.053,-0.991
6/14/2018 12:08:40.050,-0.009,-0.056,-0.988
6/14/2018 12:08:40.075,-0.003,-0.056,-0.982
6/14/2018 12:08:40.100,-0.009,-0.053,-0.982
6/14/2018 12:08:40.125,-0.003,-0.056,-0.988
6/14/2018 12:08:40.150,-0.003,-0.056,-0.988
6/14/2018 12:08:40.175,-0.009,-0.056,-0.982
6/14/2018 12:08:40.200,-0.003,-0.056,-0.988
6/14/2018 12:08:40.225,-0.009,-0.053,-0.982
6/14/2018 12:08:40.250,-0.003,-0.053,-0.982
6/14/2018 12:08:40.275,-0.003,-0.053,-0.988
6/14/2018 12:08:40.300,-0.012,-0.053,-0.988
6/14/2018 12:08:40.325,-0.012,-0.056,-0.982
6/14/2018 12:08:40.350,-0.009,-0.053,-0.979
6/14/2018 12:08:40.375,-0.003,-0.047,-0.988
6/14/2018 12:08:40.400,-0.003,-0.053,-0.988
6/14/2018 12:08:40.425,-0.003,-0.056,-0.988
6/14/2018 12:08:40.450,-0.009,-0.053,-0.982
6/14/2018 12:08:40.475,-0.003,-0.056,-0.988
6/14/2018 12:08:40.500,0,-0.047,-0.988
6/14/2018 12:08:40.525,-0.003,-0.053,-0.982
6/14/2018 12:08:40.550,-0.012,-0.053,-0.988
6/14/2018 12:08:40.575,-0.009,-0.047,-0.982
6/14/2018 12:08:40.600,-0.009,-0.056,-0.982
6/14/2018 12:08:40.625,-0.003,-0.047,-0.982
6/14/2018 12:08:40.650,-0.009,-0.056,-0.982
6/14/2018 12:08:40.675,-0.009,-0.056,-0.982
6/14/2018 12:08:40.700,-0.009,-0.053,-0.982
6/14/2018 12:08:40.725,-0.009,-0.053,-0.982
6/14/2018 12:08:40.750,-0.009,-0.053,-0.982
6/14/2018 12:08:40.775,-0.009,-0.053,-0.982
6/14/2018 12:08:40.800,-0.009,-0.053,-0.988
6/14/2018 12:08:40.825,-0.009,-0.053,-0.982
6/14/2018 12:08:40.850,-0.003,-0.053,-0.988
6/14/2018 12:08:40.875,-0.003,-0.056,-0.979
6/14/2018 12:08:40.900,-0.009,-0.053,-0.982
6/14/2018 12:08:40.925,-0.003,-0.056,-0.988
6/14/2018 12:08:40.950,-0.003,-0.053,-0.982
6/14/2018 12:08:40.975,-0.009,-0.053,-0.988
6/14/2018 12:08:41.000,-0.009,-0.053,-0.988
6/14/2018 12:08:41.025,-0.009,-0.056,-0.988
6/14/2018 12:08:41.050,-0.003,-0.056,-0.988
6/14/2018 12:08:41.075,-0.009,-0.056,-0.988
6/14/2018 12:08:41.100,-0.003,-0.053,-0.982
6/14/2018 12:08:41.125,-0.003,-0.056,-0.982
6/14/2018 12:08:41.150,-0.003,-0.047,-0.988
6/14/2018 12:08:41.175,-0.009,-0.053,-0.982
6/14/2018 12:08:41.200,-0.009,-0.047,-0.982
6/14/2018 12:08:41.225,-0.009,-0.053,-0.988
6/14/2018 12:08:41.250,-0.003,-0.053,-0.982
6/14/2018 12:08:41.275,-0.012,-0.047,-0.988
6/14/2018 12:08:41.300,-0.009,-0.047,-0.988
6/14/2018 12:08:41.325,-0.009,-0.053,-0.988
6/14/2018 12:08:41.350,-0.009,-0.053,-0.988
6/14/2018 12:08:41.375,-0.009,-0.056,-0.988
6/14/2018 12:08:41.400,-0.003,-0.053,-0.988
6/14/2018 12:08:41.425,-0.009,-0.056,-0.982
6/14/2018 12:08:41.450,-0.009,-0.056,-0.982
6/14/2018 12:08:41.475,-0.009,-0.047,-0.982
6/14/2018 12:08:41.500,-0.003,-0.053,-0.988
6/14/2018 12:08:41.525,-0.009,-0.047,-0.982
6/14/2018 12:08:41.550,-0.012,-0.053,-0.982
6/14/2018 12:08:41.575,-0.003,-0.053,-0.982
6/14/2018 12:08:41.600,-0.009,-0.053,-0.988
6/14/2018 12:08:41.625,-0.003,-0.053,-0.988
6/14/2018 12:08:41.650,-0.012,-0.056,-0.988
6/14/2018 12:08:41.675,-0.003,-0.047,-0.982
6/14/2018 12:08:41.700,-0.003,-0.056,-0.982
6/14/2018 12:08:41.725,-0.003,-0.056,-0.988
6/14/2018 12:08:41.750,-0.009,-0.047,-0.988
6/14/2018 12:08:41.775,-0.009,-0.053,-0.982
6/14/2018 12:08:41.800,-0.003,-0.047,-0.982
6/14/2018 12:08:41.825,-0.003,-0.056,-0.982
6/14/2018 12:08:41.850,-0.003,-0.047,-0.988
6/14/2018 12:08:41.875,-0.003,-0.047,-0.982
6/14/2018 12:08:41.900,-0.009,-0.053,-0.982
6/14/2018 12:08:41.925,-0.003,-0.053,-0.982
6/14/2018 12:08:41.950,0,-0.047,-0.988
6/14/2018 12:08:41.975,-0.012,-0.059,-0.979
6/14/2018 12:08:42.000,-0.003,-0.059,-0.988
6/14/2018 12:08:42.025,-0.012,-0.047,-0.982
6/14/2018 12:08:42.050,0,-0.044,-0.982
6/14/2018 12:08:42.075,-0.003,-0.056,-0.988
6/14/2018 12:08:42.100,-0.003,-0.053,-0.977
6/14/2018 12:08:42.125,-0.003,-0.056,-0.991
6/14/2018 12:08:42.150,-0.012,-0.053,-0.974
6/14/2018 12:08:42.175,0.003,-0.056,-0.988
6/14/2018 12:08:42.200,-0.003,-0.047,-0.991
6/14/2018 12:08:42.225,-0.009,-0.044,-0.988
6/14/2018 12:08:42.250,0,-0.053,-0.982
6/14/2018 12:08:42.275,0.009,-0.053,-0.982
6/14/2018 12:08:42.300,0.015,-0.047,-0.991
6/14/2018 12:08:42.325,0.003,-0.053,-0.979
6/14/2018 12:08:42.350,0.026,-0.044,-0.991
6/14/2018 12:08:42.375,0.029,-0.053,-0.991
6/14/2018 12:08:42.400,0.053,-0.053,-0.979
6/14/2018 12:08:42.425,0.085,-0.047,-0.994
6/14/2018 12:08:42.450,0.082,-0.047,-0.988
6/14/2018 12:08:42.475,0.085,-0.067,-0.956
6/14/2018 12:08:42.500,0.073,-0.141,-1.041
6/14/2018 12:08:42.525,0.067,0,-1.035
6/14/2018 12:08:42.550,-0.073,-0.1,-0.839
6/14/2018 12:08:42.575,-0.117,-0.126,-1.047
6/14/2018 12:08:42.600,-0.029,0.009,-0.877
6/14/2018 12:08:42.625,0.053,-0.056,-1.047
6/14/2018 12:08:42.650,0.07,-0.123,-1.041
6/14/2018 12:08:42.675,0.032,-0.062,-0.977
6/14/2018 12:08:42.700,0.073,-0.003,-0.856
6/14/2018 12:08:42.725,0.067,-0.091,-1.182
6/14/2018 12:08:42.750,0.015,0.012,-0.821
6/14/2018 12:08:42.775,0.082,-0.126,-1.367
6/14/2018 12:08:42.800,-0.044,0.038,-0.686
6/14/2018 12:08:42.825,0.009,-0.044,-1.208
6/14/2018 12:08:42.850,-0.361,-0.114,-0.554
6/14/2018 12:08:42.875,-0.129,0.032,-1.182
6/14/2018 12:08:42.900,-0.305,0.067,-0.824
6/14/2018 12:08:42.925,0.088,-0.029,-1.182
6/14/2018 12:08:42.950,0.038,-0.067,-0.977
6/14/2018 12:08:42.975,-0.026,-0.047,-0.935
6/14/2018 12:08:43.000,0.009,-0.062,-1.012
6/14/2018 12:08:43.025,0,-0.053,-1.006
6/14/2018 12:08:43.050,-0.015,-0.056,-0.974
6/14/2018 12:08:43.075,-0.003,-0.044,-0.977
6/14/2018 12:08:43.100,0.009,-0.044,-0.994
6/14/2018 12:08:43.125,0,-0.038,-0.988
6/14/2018 12:08:43.150,0,-0.038,-0.982
6/14/2018 12:08:43.175,0,-0.038,-0.988
6/14/2018 12:08:43.200,0.003,-0.038,-0.988
6/14/2018 12:08:43.225,-0.003,-0.044,-0.988
6/14/2018 12:08:43.250,-0.009,-0.044,-0.979
6/14/2018 12:08:43.275,-0.009,-0.056,-0.988
6/14/2018 12:08:43.300,-0.009,-0.059,-0.982
6/14/2018 12:08:43.325,-0.009,-0.062,-0.982
6/14/2018 12:08:43.350,-0.009,-0.059,-0.982
6/14/2018 12:08:43.375,0,-0.059,-0.988
6/14/2018 12:08:43.400,0.009,-0.056,-0.988
6/14/2018 12:08:43.425,0.003,-0.047,-0.988
6/14/2018 12:08:43.450,0,-0.047,-0.982
6/14/2018 12:08:43.475,0.018,-0.044,-0.988
6/14/2018 12:08:43.500,0.003,-0.041,-0.982
6/14/2018 12:08:43.525,0.029,-0.032,-0.991
6/14/2018 12:08:43.550,0.053,-0.023,-0.994
6/14/2018 12:08:43.575,0.044,-0.018,-0.968
6/14/2018 12:08:43.600,0.003,-0.015,-1.003
6/14/2018 12:08:43.625,-0.009,0.003,-0.968
6/14/2018 12:08:43.650,-0.015,-0.029,-0.997
6/14/2018 12:08:43.675,-0.073,-0.056,-0.979
6/14/2018 12:08:43.700,-0.111,-0.091,-0.947
6/14/2018 12:08:43.725,0.009,-0.067,-1.006
6/14/2018 12:08:43.750,0.009,-0.088,-0.988
6/14/2018 12:08:43.775,-0.015,-0.082,-0.965
6/14/2018 12:08:43.800,0.009,-0.091,-1.009
6/14/2018 12:08:43.825,-0.032,-0.067,-0.982
6/14/2018 12:08:43.850,-0.038,-0.07,-0.965
6/14/2018 12:08:43.875,-0.012,-0.07,-0.991
6/14/2018 12:08:43.900,0.003,-0.059,-0.979
6/14/2018 12:08:43.925,0,-0.053,-0.982
6/14/2018 12:08:43.950,-0.018,-0.041,-0.982
6/14/2018 12:08:43.975,0.012,-0.032,-0.994
6/14/2018 12:08:44.000,0.012,-0.015,-0.979
6/14/2018 12:08:44.025,-0.009,-0.018,-0.982
6/14/2018 12:08:44.050,0.015,-0.018,-0.994
6/14/2018 12:08:44.075,0.041,0,-0.982
6/14/2018 12:08:44.100,0.026,-0.003,-0.979
6/14/2018 12:08:44.125,-0.067,-0.032,-0.977
6/14/2018 12:08:44.150,-0.067,-0.106,-0.974
6/14/2018 12:08:44.175,0.003,-0.038,-0.988
6/14/2018 12:08:44.200,-0.023,-0.07,-0.994
6/14/2018 12:08:44.225,-0.015,-0.082,-0.982
6/14/2018 12:08:44.250,-0.015,-0.076,-0.991
6/14/2018 12:08:44.275,-0.012,-0.085,-0.991
6/14/2018 12:08:44.300,-0.018,-0.076,-0.982
6/14/2018 12:08:44.325,-0.015,-0.07,-0.982
6/14/2018 12:08:44.350,-0.009,-0.062,-0.982
6/14/2018 12:08:44.375,-0.003,-0.056,-0.994
6/14/2018 12:08:44.400,-0.003,-0.038,-0.982
6/14/2018 12:08:44.425,0.026,-0.047,-1.021
6/14/2018 12:08:44.450,-0.023,-0.041,-0.965
6/14/2018 12:08:44.475,0,-0.032,-0.982
6/14/2018 12:08:44.500,0.003,-0.032,-0.991
6/14/2018 12:08:44.525,-0.003,-0.041,-0.988
6/14/2018 12:08:44.550,-0.012,-0.041,-0.979
6/14/2018 12:08:44.575,-0.009,-0.044,-0.988
6/14/2018 12:08:44.600,-0.009,-0.053,-0.991
6/14/2018 12:08:44.625,-0.012,-0.059,-0.977
6/14/2018 12:08:44.650,-0.012,-0.062,-0.979
6/14/2018 12:08:44.675,-0.009,-0.062,-0.991
6/14/2018 12:08:44.700,-0.009,-0.062,-0.988
6/14/2018 12:08:44.725,0,-0.056,-0.994
6/14/2018 12:08:44.750,-0.009,-0.047,-0.977
6/14/2018 12:08:44.775,-0.009,-0.047,-0.982
6/14/2018 12:08:44.800,-0.003,-0.044,-0.994
6/14/2018 12:08:44.825,-0.003,-0.041,-0.982
6/14/2018 12:08:44.850,-0.023,-0.056,-0.968
6/14/2018 12:08:44.875,0.003,-0.047,-0.991
6/14/2018 12:08:44.900,-0.015,-0.053,-0.979
6/14/2018 12:08:44.925,0,-0.059,-0.991
6/14/2018 12:08:44.950,-0.009,-0.053,-0.982
6/14/2018 12:08:44.975,-0.009,-0.056,-0.979
6/14/2018 12:08:45.000,-0.003,-0.053,-0.988
6/14/2018 12:08:45.025,-0.003,-0.047,-0.988
6/14/2018 12:08:45.050,-0.003,-0.047,-0.982
6/14/2018 12:08:45.075,0,-0.053,-0.979
6/14/2018 12:08:45.100,-0.009,-0.053,-0.982
6/14/2018 12:08:45.125,-0.003,-0.056,-0.982
6/14/2018 12:08:45.150,-0.003,-0.053,-0.982
6/14/2018 12:08:45.175,-0.003,-0.059,-0.988
6/14/2018 12:08:45.200,-0.003,-0.047,-0.988
6/14/2018 12:08:45.225,-0.009,-0.047,-0.988
6/14/2018 12:08:45.250,-0.009,-0.053,-0.988
6/14/2018 12:08:45.275,-0.009,-0.053,-0.982
6/14/2018 12:08:45.300,-0.003,-0.053,-0.982
6/14/2018 12:08:45.325,-0.003,-0.053,-0.982
6/14/2018 12:08:45.350,0,-0.053,-0.988
6/14/2018 12:08:45.375,-0.009,-0.053,-0.982
6/14/2018 12:08:45.400,-0.003,-0.053,-0.988
6/14/2018 12:08:45.425,-0.009,-0.053,-0.982
6/14/2018 12:08:45.450,-0.003,-0.053,-0.982
6/14/2018 12:08:45.475,-0.003,-0.053,-0.979
6/14/2018 12:08:45.500,-0.003,-0.047,-0.982
6/14/2018 12:08:45.525,-0.003,-0.053,-0.982
6/14/2018 12:08:45.550,0,-0.053,-0.988
6/14/2018 12:08:45.575,-0.009,-0.053,-0.979
6/14/2018 12:08:45.600,-0.009,-0.056,-0.982
6/14/2018 12:08:45.625,-0.003,-0.056,-0.982
6/14/2018 12:08:45.650,-0.003,-0.053,-0.982
6/14/2018 12:08:45.675,-0.009,-0.053,-0.988
6/14/2018 12:08:45.700,-0.009,-0.053,-0.982
6/14/2018 12:08:45.725,-0.009,-0.053,-0.982
6/14/2018 12:08:45.750,-0.003,-0.047,-0.988
6/14/2018 12:08:45.775,-0.003,-0.047,-0.982
6/14/2018 12:08:45.800,-0.009,-0.053,-0.982
6/14/2018 12:08:45.825,-0.003,-0.053,-0.982
6/14/2018 12:08:45.850,-0.009,-0.047,-0.988
6/14/2018 12:08:45.875,-0.003,-0.053,-0.988
6/14/2018 12:08:45.900,-0.003,-0.053,-0.982
6/14/2018 12:08:45.925,-0.009,-0.056,-0.982
6/14/2018 12:08:45.950,-0.009,-0.047,-0.982
6/14/2018 12:08:45.975,-0.003,-0.053,-0.982
6/14/2018 12:08:46.000,-0.003,-0.053,-0.982
6/14/2018 12:08:46.025,-0.009,-0.056,-0.982
6/14/2018 12:08:46.050,-0.003,-0.056,-0.982
6/14/2018 12:08:46.075,-0.003,-0.056,-0.988
6/14/2018 12:08:46.100,-0.009,-0.053,-0.982
6/14/2018 12:08:46.125,-0.009,-0.053,-0.982
6/14/2018 12:08:46.150,-0.009,-0.053,-0.982
6/14/2018 12:08:46.175,-0.003,-0.053,-0.988
6/14/2018 12:08:46.200,-0.009,-0.053,-0.988
6/14/2018 12:08:46.225,0,-0.053,-0.982
6/14/2018 12:08:46.250,-0.003,-0.053,-0.982
6/14/2018 12:08:46.275,-0.003,-0.053,-0.988
6/14/2018 12:08:46.300,-0.003,-0.053,-0.982
6/14/2018 12:08:46.325,-0.003,-0.056,-0.988
6/14/2018 12:08:46.350,0,-0.053,-0.982
6/14/2018 12:08:46.375,-0.003,-0.056,-0.982
6/14/2018 12:08:46.400,-0.003,-0.056,-0.982
6/14/2018 12:08:46.425,-0.003,-0.053,-0.988
6/14/2018 12:08:46.450,-0.003,-0.053,-0.982
6/14/2018 12:08:46.475,-0.003,-0.053,-0.979
6/14/2018 12:08:46.500,-0.009,-0.053,-0.982
6/14/2018 12:08:46.525,-0.003,-0.053,-0.982
6/14/2018 12:08:46.550,-0.003,-0.056,-0.988
6/14/2018 12:08:46.575,-0.009,-0.056,-0.982
6/14/2018 12:08:46.600,-0.003,-0.053,-0.988
6/14/2018 12:08:46.625,-0.009,-0.053,-0.988
6/14/2018 12:08:46.650,-0.009,-0.053,-0.982
6/14/2018 12:08:46.675,-0.003,-0.047,-0.982
6/14/2018 12:08:46.700,-0.003,-0.053,-0.988
6/14/2018 12:08:46.725,-0.009,-0.053,-0.982
6/14/2018 12:08:46.750,-0.009,-0.053,-0.982
6/14/2018 12:08:46.775,-0.009,-0.053,-0.977
6/14/2018 12:08:46.800,-0.003,-0.053,-0.988
6/14/2018 12:08:46.825,-0.009,-0.053,-0.988
6/14/2018 12:08:46.850,-0.003,-0.056,-0.988
6/14/2018 12:08:46.875,-0.003,-0.053,-0.991
6/14/2018 12:08:46.900,0,-0.056,-0.982
6/14/2018 12:08:46.925,-0.003,-0.053,-0.982
6/14/2018 12:08:46.950,0,-0.053,-0.982
6/14/2018 12:08:46.975,-0.003,-0.053,-0.988
6/14/2018 12:08:47.000,-0.009,-0.053,-0.982
6/14/2018 12:08:47.025,0,-0.047,-0.988
6/14/2018 12:08:47.050,-0.009,-0.056,-0.982
6/14/2018 12:08:47.075,-0.003,-0.053,-0.988
6/14/2018 12:08:47.100,-0.003,-0.053,-0.982
6/14/2018 12:08:47.125,-0.003,-0.056,-0.982
6/14/2018 12:08:47.150,-0.003,-0.053,-0.982
6/14/2018 12:08:47.175,-0.003,-0.053,-0.988
6/14/2018 12:08:47.200,-0.003,-0.053,-0.982
6/14/2018 12:08:47.225,0,-0.053,-0.988
6/14/2018 12:08:47.250,-0.009,-0.053,-0.979
6/14/2018 12:08:47.275,-0.003,-0.056,-0.988
6/14/2018 12:08:47.300,-0.003,-0.056,-0.988
6/14/2018 12:08:47.325,-0.003,-0.047,-0.988
6/14/2018 12:08:47.350,-0.009,-0.053,-0.988
6/14/2018 12:08:47.375,-0.003,-0.053,-0.988
6/14/2018 12:08:47.400,-0.009,-0.053,-0.982
6/14/2018 12:08:47.425,-0.009,-0.047,-0.988
6/14/2018 12:08:47.450,-0.003,-0.053,-0.982
6/14/2018 12:08:47.475,-0.003,-0.053,-0.982
6/14/2018 12:08:47.500,-0.003,-0.053,-0.982
6/14/2018 12:08:47.525,-0.009,-0.047,-0.982
6/14/2018 12:08:47.550,0,-0.056,-0.988
6/14/2018 12:08:47.575,-0.003,-0.047,-0.982
6/14/2018 12:08:47.600,-0.003,-0.047,-0.982
6/14/2018 12:08:47.625,-0.003,-0.056,-0.988
6/14/2018 12:08:47.650,-0.003,-0.053,-0.988
6/14/2018 12:08:47.675,-0.003,-0.053,-0.988
6/14/2018 12:08:47.700,-0.003,-0.047,-0.982
6/14/2018 12:08:47.725,-0.003,-0.056,-0.982
6/14/2018 12:08:47.750,-0.009,-0.053,-0.988
6/14/2018 12:08:47.775,-0.003,-0.053,-0.988
6/14/2018 12:08:47.800,-0.003,-0.047,-0.988
6/14/2018 12:08:47.825,-0.003,-0.056,-0.988
6/14/2018 12:08:47.850,-0.003,-0.053,-0.988
6/14/2018 12:08:47.875,-0.003,-0.053,-0.988
6/14/2018 12:08:47.900,-0.003,-0.056,-0.991
6/14/2018 12:08:47.925,-0.009,-0.056,-0.988
6/14/2018 12:08:47.950,-0.009,-0.056,-0.988
6/14/2018 12:08:47.975,-0.009,-0.053,-0.988
6/14/2018 12:08:48.000,-0.009,-0.047,-0.982
6/14/2018 12:08:48.025,-0.009,-0.056,-0.982
6/14/2018 12:08:48.050,-0.003,-0.056,-0.988
6/14/2018 12:08:48.075,-0.009,-0.053,-0.988
6/14/2018 12:08:48.100,-0.003,-0.053,-0.982
6/14/2018 12:08:48.125,-0.003,-0.053,-0.988
6/14/2018 12:08:48.150,-0.012,-0.047,-0.982
6/14/2018 12:08:48.175,-0.003,-0.053,-0.988
6/14/2018 12:08:48.200,-0.003,-0.053,-0.988
6/14/2018 12:08:48.225,-0.009,-0.056,-0.988
6/14/2018 12:08:48.250,-0.003,-0.053,-0.988
6/14/2018 12:08:48.275,-0.003,-0.056,-0.982
6/14/2018 12:08:48.300,-0.003,-0.053,-0.988
6/14/2018 12:08:48.325,-0.009,-0.053,-0.988
6/14/2018 12:08:48.350,-0.009,-0.053,-0.982
6/14/2018 12:08:48.375,-0.003,-0.053,-0.988
6/14/2018 12:08:48.400,-0.003,-0.053,-0.982
6/14/2018 12:08:48.425,-0.009,-0.053,-0.982
6/14/2018 12:08:48.450,-0.009,-0.056,-0.979
6/14/2018 12:08:48.475,-0.003,-0.056,-0.982
6/14/2018 12:08:48.500,-0.003,-0.053,-0.982
6/14/2018 12:08:48.525,-0.003,-0.053,-0.982
6/14/2018 12:08:48.550,-0.009,-0.056,-0.982
6/14/2018 12:08:48.575,-0.003,-0.047,-0.988
6/14/2018 12:08:48.600,-0.003,-0.053,-0.982
6/14/2018 12:08:48.625,-0.009,-0.047,-0.988
6/14/2018 12:08:48.650,-0.003,-0.047,-0.988
6/14/2018 12:08:48.675,-0.003,-0.053,-0.988
6/14/2018 12:08:48.700,-0.003,-0.053,-0.982
6/14/2018 12:08:48.725,-0.009,-0.047,-0.982
6/14/2018 12:08:48.750,-0.003,-0.053,-0.982
6/14/2018 12:08:48.775,-0.009,-0.053,-0.982
6/14/2018 12:08:48.800,-0.009,-0.053,-0.982
6/14/2018 12:08:48.825,-0.003,-0.053,-0.982
6/14/2018 12:08:48.850,-0.003,-0.053,-0.982
6/14/2018 12:08:48.875,-0.003,-0.053,-0.988
6/14/2018 12:08:48.900,-0.009,-0.047,-0.982
6/14/2018 12:08:48.925,-0.009,-0.047,-0.988
6/14/2018 12:08:48.950,-0.009,-0.053,-0.982
6/14/2018 12:08:48.975,-0.003,-0.053,-0.988
6/14/2018 12:08:49.000,-0.003,-0.053,-0.988
6/14/2018 12:08:49.025,-0.009,-0.056,-0.991
6/14/2018 12:08:49.050,-0.003,-0.059,-0.991
6/14/2018 12:08:49.075,-0.009,-0.056,-0.982
6/14/2018 12:08:49.100,-0.003,-0.053,-0.982
6/14/2018 12:08:49.125,-0.012,-0.053,-0.982
6/14/2018 12:08:49.150,-0.003,-0.056,-0.991
6/14/2018 12:08:49.175,-0.003,-0.056,-0.988
6/14/2018 12:08:49.200,-0.009,-0.053,-0.979
6/14/2018 12:08:49.225,-0.003,-0.053,-0.991
6/14/2018 12:08:49.250,-0.009,-0.053,-0.988
6/14/2018 12:08:49.275,-0.009,-0.067,-0.991
6/14/2018 12:08:49.300,-0.003,-0.053,-0.982
6/14/2018 12:08:49.325,-0.003,-0.044,-0.979
6/14/2018 12:08:49.350,0.012,-0.067,-1.009
6/14/2018 12:08:49.375,-0.015,-0.056,-0.974
6/14/2018 12:08:49.400,-0.003,-0.053,-0.974
6/14/2018 12:08:49.425,0,-0.059,-0.997
6/14/2018 12:08:49.450,0,-0.053,-0.994
6/14/2018 12:08:49.475,-0.009,-0.053,-0.982
6/14/2018 12:08:49.500,0,-0.053,-0.988
6/14/2018 12:08:49.525,0.003,-0.056,-0.988
6/14/2018 12:08:49.550,0.012,-0.053,-0.988
6/14/2018 12:08:49.575,0.009,-0.056,-0.988
6/14/2018 12:08:49.600,0.023,-0.053,-0.991
6/14/2018 12:08:49.625,0.018,-0.047,-0.988
6/14/2018 12:08:49.650,0.012,-0.047,-0.994
6/14/2018 12:08:49.675,-0.015,-0.059,-0.982
6/14/2018 12:08:49.700,0.012,-0.029,-0.994
6/14/2018 12:08:49.725,0.015,-0.041,-0.977
6/14/2018 12:08:49.750,-0.009,-0.053,-0.982
6/14/2018 12:08:49.775,-0.009,-0.041,-0.982
6/14/2018 12:08:49.800,0.009,-0.056,-0.977
6/14/2018 12:08:49.825,0.038,-0.056,-1.003
6/14/2018 12:08:49.850,0.053,-0.044,-1.009
6/14/2018 12:08:49.875,0.062,-0.059,-0.982
6/14/2018 12:08:49.900,0.144,-0.053,-0.994
6/14/2018 12:08:49.925,0.229,0.067,-1.208
6/14/2018 12:08:49.950,0.029,-0.132,-0.88
6/14/2018 12:08:49.975,-0.15,0.067,-1.302
6/14/2018 12:08:50.000,-0.334,-0.085,-0.496
6/14/2018 12:08:50.025,-0.144,-0.158,-1.059
6/14/2018 12:08:50.050,-0.097,-0.023,-1.003
6/14/2018 12:08:50.075,0.026,-0.044,-0.965
6/14/2018 12:08:50.100,0.003,-0.085,-1.009
6/14/2018 12:08:50.125,-0.003,-0.076,-1.006
6/14/2018 12:08:50.150,-0.023,-0.085,-0.974
6/14/2018 12:08:50.175,-0.018,-0.088,-0.979
6/14/2018 12:08:50.200,-0.009,-0.082,-0.994
6/14/2018 12:08:50.225,-0.015,-0.07,-0.988
6/14/2018 12:08:50.250,-0.009,-0.067,-0.988
6/14/2018 12:08:50.275,-0.009,-0.059,-0.988
6/14/2018 12:08:50.300,-0.003,-0.053,-0.982
6/14/2018 12:08:50.325,0.003,-0.044,-0.988
6/14/2018 12:08:50.350,-0.003,-0.038,-0.982
6/14/2018 12:08:50.375,0,-0.032,-0.982
6/14/2018 12:08:50.400,0.003,-0.026,-0.988
6/14/2018 12:08:50.425,0.003,-0.026,-0.979
6/14/2018 12:08:50.450,-0.003,-0.044,-0.982
6/14/2018 12:08:50.475,-0.003,-0.047,-0.991
6/14/2018 12:08:50.500,0.003,-0.047,-0.994
6/14/2018 12:08:50.525,-0.012,-0.062,-0.982
6/14/2018 12:08:50.550,-0.003,-0.062,-0.982
6/14/2018 12:08:50.575,-0.009,-0.067,-0.988
6/14/2018 12:08:50.600,-0.009,-0.062,-0.982
6/14/2018 12:08:50.625,-0.009,-0.062,-0.982
6/14/2018 12:08:50.650,-0.009,-0.059,-0.979
6/14/2018 12:08:50.675,-0.003,-0.053,-0.979
6/14/2018 12:08:50.700,-0.009,-0.053,-0.982
6/14/2018 12:08:50.725,-0.003,-0.047,-0.988
6/14/2018 12:08:50.750,-0.003,-0.041,-0.982
6/14/2018 12:08:50.775,-0.003,-0.041,-0.988
6/14/2018 12:08:50.800,-0.009,-0.053,-0.988
6/14/2018 12:08:50.825,-0.003,-0.056,-0.982
6/14/2018 12:08:50.850,-0.003,-0.056,-0.982
6/14/2018 12:08:50.875,-0.009,-0.059,-0.988
6/14/2018 12:08:50.900,-0.009,-0.059,-0.988
6/14/2018 12:08:50.925,-0.003,-0.056,-0.988
6/14/2018 12:08:50.950,-0.009,-0.053,-0.988
6/14/2018 12:08:50.975,-0.003,-0.056,-0.988
6/14/2018 12:08:51.000,-0.009,-0.053,-0.988
6/14/2018 12:08:51.025,0,-0.053,-0.988
6/14/2018 12:08:51.050,-0.003,-0.053,-0.988
6/14/2018 12:08:51.075,-0.009,-0.056,-0.988
6/14/2018 12:08:51.100,-0.003,-0.056,-0.988
6/14/2018 12:08:51.125,-0.009,-0.053,-0.982
6/14/2018 12:08:51.150,-0.003,-0.056,-0.991
6/14/2018 12:08:51.175,-0.009,-0.053,-0.982
6/14/2018 12:08:51.200,0,-0.053,-0.982
6/14/2018 12:08:51.225,-0.003,-0.047,-0.988
6/14/2018 12:08:51.250,-0.003,-0.056,-0.982
6/14/2018 12:08:51.275,-0.003,-0.056,-0.982
6/14/2018 12:08:51.300,-0.009,-0.056,-0.988
6/14/2018 12:08:51.325,-0.003,-0.056,-0.991
6/14/2018 12:08:51.350,-0.009,-0.053,-0.991
6/14/2018 12:08:51.375,-0.009,-0.056,-0.988
6/14/2018 12:08:51.400,-0.003,-0.056,-0.988
6/14/2018 12:08:51.425,-0.009,-0.056,-0.991
6/14/2018 12:08:51.450,-0.009,-0.056,-0.982
6/14/2018 12:08:51.475,-0.003,-0.056,-0.988
6/14/2018 12:08:51.500,-0.003,-0.053,-0.988
6/14/2018 12:08:51.525,-0.009,-0.053,-0.982
6/14/2018 12:08:51.550,-0.003,-0.056,-0.982
6/14/2018 12:08:51.575,-0.003,-0.053,-0.988
6/14/2018 12:08:51.600,-0.003,-0.056,-0.982
6/14/2018 12:08:51.625,-0.009,-0.056,-0.988
6/14/2018 12:08:51.650,-0.003,-0.053,-0.988
6/14/2018 12:08:51.675,-0.003,-0.056,-0.988
6/14/2018 12:08:51.700,-0.009,-0.053,-0.988
6/14/2018 12:08:51.725,-0.003,-0.053,-0.982
6/14/2018 12:08:51.750,-0.009,-0.053,-0.988
6/14/2018 12:08:51.775,-0.003,-0.053,-0.982
6/14/2018 12:08:51.800,-0.012,-0.056,-0.988
6/14/2018 12:08:51.825,-0.003,-0.053,-0.988
6/14/2018 12:08:51.850,-0.009,-0.053,-0.982
6/14/2018 12:08:51.875,-0.009,-0.053,-0.982
6/14/2018 12:08:51.900,-0.003,-0.056,-0.988
6/14/2018 12:08:51.925,-0.003,-0.056,-0.982
6/14/2018 12:08:51.950,-0.003,-0.053,-0.982
6/14/2018 12:08:51.975,0,-0.056,-0.982
6/14/2018 12:08:52.000,-0.003,-0.053,-0.982
6/14/2018 12:08:52.025,-0.009,-0.056,-0.988
6/14/2018 12:08:52.050,0,-0.053,-0.988
6/14/2018 12:08:52.075,-0.003,-0.053,-0.988
6/14/2018 12:08:52.100,-0.009,-0.053,-0.982
6/14/2018 12:08:52.125,-0.009,-0.053,-0.988
6/14/2018 12:08:52.150,0,-0.053,-0.982
6/14/2018 12:08:52.175,-0.003,-0.053,-0.979
6/14/2018 12:08:52.200,-0.009,-0.053,-0.988
6/14/2018 12:08:52.225,-0.009,-0.053,-0.982
6/14/2018 12:08:52.250,-0.003,-0.053,-0.982
6/14/2018 12:08:52.275,-0.003,-0.053,-0.982
6/14/2018 12:08:52.300,-0.009,-0.053,-0.988
6/14/2018 12:08:52.325,-0.009,-0.053,-0.982
6/14/2018 12:08:52.350,-0.003,-0.053,-0.982
6/14/2018 12:08:52.375,-0.009,-0.056,-0.982
6/14/2018 12:08:52.400,-0.003,-0.056,-0.988
6/14/2018 12:08:52.425,-0.003,-0.056,-0.982
6/14/2018 12:08:52.450,-0.003,-0.056,-0.988
6/14/2018 12:08:52.475,-0.003,-0.053,-0.988
6/14/2018 12:08:52.500,-0.009,-0.053,-0.982
6/14/2018 12:08:52.525,-0.009,-0.056,-0.988
6/14/2018 12:08:52.550,-0.009,-0.053,-0.982
6/14/2018 12:08:52.575,-0.009,-0.053,-0.982
6/14/2018 12:08:52.600,-0.009,-0.053,-0.982
6/14/2018 12:08:52.625,-0.003,-0.047,-0.982
6/14/2018 12:08:52.650,-0.009,-0.047,-0.977
6/14/2018 12:08:52.675,-0.003,-0.056,-0.991
6/14/2018 12:08:52.700,0.003,-0.053,-0.994
6/14/2018 12:08:52.725,-0.003,-0.053,-0.977
6/14/2018 12:08:52.750,-0.003,-0.056,-0.979
6/14/2018 12:08:52.775,-0.009,-0.056,-0.991
6/14/2018 12:08:52.800,-0.009,-0.047,-0.988
6/14/2018 12:08:52.825,-0.003,-0.056,-0.988
6/14/2018 12:08:52.850,-0.003,-0.053,-0.982
6/14/2018 12:08:52.875,-0.003,-0.053,-0.988
6/14/2018 12:08:52.900,-0.009,-0.053,-0.988
6/14/2018 12:08:52.925,-0.003,-0.056,-0.982
6/14/2018 12:08:52.950,-0.009,-0.056,-0.988
6/14/2018 12:08:52.975,-0.009,-0.053,-0.982
6/14/2018 12:08:53.000,-0.003,-0.053,-0.982
6/14/2018 12:08:53.025,-0.009,-0.053,-0.988
6/14/2018 12:08:53.050,-0.003,-0.053,-0.988
6/14/2018 12:08:53.075,-0.009,-0.053,-0.988
6/14/2018 12:08:53.100,-0.003,-0.053,-0.988
6/14/2018 12:08:53.125,-0.003,-0.056,-0.988
6/14/2018 12:08:53.150,-0.003,-0.053,-0.982
6/14/2018 12:08:53.175,0,-0.053,-0.982
6/14/2018 12:08:53.200,-0.009,-0.053,-0.991
6/14/2018 12:08:53.225,-0.003,-0.056,-0.982
6/14/2018 12:08:53.250,-0.003,-0.053,-0.988
6/14/2018 12:08:53.275,-0.009,-0.053,-0.982
6/14/2018 12:08:53.300,-0.003,-0.053,-0.988
6/14/2018 12:08:53.325,-0.003,-0.053,-0.982
6/14/2018 12:08:53.350,-0.009,-0.053,-0.982
6/14/2018 12:08:53.375,-0.003,-0.056,-0.988
6/14/2018 12:08:53.400,-0.003,-0.056,-0.988
6/14/2018 12:08:53.425,0,-0.056,-0.988
6/14/2018 12:08:53.450,-0.003,-0.053,-0.982
6/14/2018 12:08:53.475,-0.003,-0.056,-0.988
6/14/2018 12:08:53.500,-0.003,-0.056,-0.988
6/14/2018 12:08:53.525,-0.009,-0.053,-0.988
6/14/2018 12:08:53.550,-0.009,-0.053,-0.982
6/14/2018 12:08:53.575,-0.003,-0.056,-0.988
6/14/2018 12:08:53.600,-0.003,-0.053,-0.982
6/14/2018 12:08:53.625,-0.003,-0.056,-0.982
6/14/2018 12:08:53.650,-0.003,-0.053,-0.982
6/14/2018 12:08:53.675,-0.003,-0.053,-0.988
6/14/2018 12:08:53.700,-0.009,-0.053,-0.982
6/14/2018 12:08:53.725,-0.003,-0.056,-0.982
6/14/2018 12:08:53.750,-0.003,-0.056,-0.982
6/14/2018 12:08:53.775,0,-0.053,-0.982
6/14/2018 12:08:53.800,-0.003,-0.053,-0.982
6/14/2018 12:08:53.825,-0.003,-0.053,-0.982
6/14/2018 12:08:53.850,-0.003,-0.056,-0.988
6/14/2018 12:08:53.875,-0.009,-0.053,-0.988
6/14/2018 12:08:53.900,-0.009,-0.053,-0.982
6/14/2018 12:08:53.925,-0.009,-0.053,-0.991
6/14/2018 12:08:53.950,0,-0.047,-0.988
6/14/2018 12:08:53.975,-0.009,-0.056,-0.988
6/14/2018 12:08:54.000,-0.003,-0.053,-0.982
6/14/2018 12:08:54.025,-0.003,-0.053,-0.982
6/14/2018 12:08:54.050,-0.003,-0.056,-0.982
6/14/2018 12:08:54.075,-0.003,-0.053,-0.988
6/14/2018 12:08:54.100,-0.009,-0.056,-0.988
6/14/2018 12:08:54.125,0,-0.056,-0.982
6/14/2018 12:08:54.150,-0.003,-0.056,-0.988
6/14/2018 12:08:54.175,-0.009,-0.053,-0.988
6/14/2018 12:08:54.200,-0.003,-0.056,-0.988
6/14/2018 12:08:54.225,-0.003,-0.056,-0.988
6/14/2018 12:08:54.250,-0.003,-0.056,-0.988
6/14/2018 12:08:54.275,-0.003,-0.053,-0.982
6/14/2018 12:08:54.300,-0.003,-0.056,-0.982
6/14/2018 12:08:54.325,-0.009,-0.053,-0.988
6/14/2018 12:08:54.350,-0.003,-0.056,-0.982
6/14/2018 12:08:54.375,-0.003,-0.053,-0.988
6/14/2018 12:08:54.400,-0.003,-0.053,-0.988
6/14/2018 12:08:54.425,-0.003,-0.053,-0.982
6/14/2018 12:08:54.450,-0.003,-0.056,-0.988
6/14/2018 12:08:54.475,-0.009,-0.053,-0.988
6/14/2018 12:08:54.500,-0.009,-0.053,-0.982
6/14/2018 12:08:54.525,-0.003,-0.053,-0.982
6/14/2018 12:08:54.550,-0.003,-0.056,-0.982
6/14/2018 12:08:54.575,-0.003,-0.053,-0.982
6/14/2018 12:08:54.600,-0.009,-0.056,-0.988
6/14/2018 12:08:54.625,-0.003,-0.056,-0.982
6/14/2018 12:08:54.650,-0.009,-0.053,-0.982
6/14/2018 12:08:54.675,-0.009,-0.056,-0.982
6/14/2018 12:08:54.700,-0.009,-0.056,-0.988
6/14/2018 12:08:54.725,-0.009,-0.056,-0.988
6/14/2018 12:08:54.750,-0.003,-0.047,-0.988
6/14/2018 12:08:54.775,-0.009,-0.053,-0.988
6/14/2018 12:08:54.800,-0.003,-0.056,-0.982
6/14/2018 12:08:54.825,-0.003,-0.053,-0.988
6/14/2018 12:08:54.850,-0.003,-0.053,-0.988
6/14/2018 12:08:54.875,-0.003,-0.053,-0.988
6/14/2018 12:08:54.900,-0.003,-0.053,-0.982
6/14/2018 12:08:54.925,-0.003,-0.056,-0.982
6/14/2018 12:08:54.950,-0.003,-0.047,-0.982
6/14/2018 12:08:54.975,-0.003,-0.053,-0.988
6/14/2018 12:08:55.000,-0.009,-0.053,-0.982
6/14/2018 12:08:55.025,-0.003,-0.056,-0.982
6/14/2018 12:08:55.050,-0.003,-0.056,-0.988
6/14/2018 12:08:55.075,-0.003,-0.056,-0.982
6/14/2018 12:08:55.100,-0.003,-0.056,-0.988
6/14/2018 12:08:55.125,-0.003,-0.056,-0.982
6/14/2018 12:08:55.150,-0.003,-0.053,-0.988
6/14/2018 12:08:55.175,-0.009,-0.053,-0.982
6/14/2018 12:08:55.200,0,-0.053,-0.982
6/14/2018 12:08:55.225,-0.003,-0.053,-0.988
6/14/2018 12:08:55.250,-0.009,-0.053,-0.988
6/14/2018 12:08:55.275,-0.003,-0.053,-0.982
6/14/2018 12:08:55.300,-0.003,-0.056,-0.991
6/14/2018 12:08:55.325,-0.009,-0.053,-0.982
6/14/2018 12:08:55.350,-0.009,-0.053,-0.982
6/14/2018 12:08:55.375,-0.003,-0.056,-0.988
6/14/2018 12:08:55.400,-0.003,-0.053,-0.988
6/14/2018 12:08:55.425,-0.003,-0.056,-0.982
6/14/2018 12:08:55.450,-0.009,-0.053,-0.982
6/14/2018 12:08:55.475,-0.003,-0.056,-0.982
6/14/2018 12:08:55.500,0,-0.056,-0.988
6/14/2018 12:08:55.525,-0.003,-0.053,-0.988
6/14/2018 12:08:55.550,-0.009,-0.053,-0.988
6/14/2018 12:08:55.575,0,-0.053,-0.982
6/14/2018 12:08:55.600,-0.003,-0.053,-0.982
6/14/2018 12:08:55.625,-0.003,-0.053,-0.988
6/14/2018 12:08:55.650,-0.003,-0.056,-0.988
6/14/2018 12:08:55.675,-0.003,-0.053,-0.988
6/14/2018 12:08:55.700,0.059,0.158,-1.006
6/14/2018 12:08:55.725,0.053,0.106,-1.006
6/14/2018 12:08:55.750,0.067,0.111,-0.991
6/14/2018 12:08:55.775,0.062,0.07,-0.979
6/14/2018 12:08:55.800,0.07,0.047,-0.979
6/14/2018 12:08:55.825,0.088,0.038,-0.991
6/14/2018 12:08:55.850,0.044,-0.073,-0.991
6/14/2018 12:08:55.875,0.012,-0.114,-0.991
6/14/2018 12:08:55.900,-0.003,-0.111,-0.988
6/14/2018 12:08:55.925,-0.009,-0.103,-0.982
6/14/2018 12:08:55.950,0,-0.091,-0.988
6/14/2018 12:08:55.975,0.003,-0.076,-0.979
6/14/2018 12:08:56.000,0.003,-0.073,-0.979
6/14/2018 12:08:56.025,0,-0.082,-0.982
6/14/2018 12:08:56.050,0,-0.073,-0.982
6/14/2018 12:08:56.075,-0.009,-0.076,-0.982
6/14/2018 12:08:56.100,0.047,-0.041,-0.988
6/14/2018 12:08:56.125,0.059,-0.041,-0.988
6/14/2018 12:08:56.150,0.073,-0.047,-0.977
6/14/2018 12:08:56.175,0.07,-0.059,-0.977
6/14/2018 12:08:56.200,0.029,-0.091,-0.994
6/14/2018 12:08:56.225,0,-0.103,-0.988
6/14/2018 12:08:56.250,-0.038,-0.1,-0.956
6/14/2018 12:08:56.275,-0.047,-0.103,-0.997
6/14/2018 12:08:56.300,-0.044,-0.091,-0.994
6/14/2018 12:08:56.325,-0.044,-0.085,-0.979
6/14/2018 12:08:56.350,-0.047,-0.076,-0.977
6/14/2018 12:08:56.375,-0.026,-0.073,-0.974
6/14/2018 12:08:56.400,0.012,-0.076,-0.988
6/14/2018 12:08:56.425,0.018,-0.088,-0.979
6/14/2018 12:08:56.450,0.038,-0.082,-0.962
6/14/2018 12:08:56.475,0.062,-0.091,-0.941
6/14/2018 12:08:56.500,0.085,-0.114,-0.956
6/14/2018 12:08:56.525,0.056,-0.141,-0.994
6/14/2018 12:08:56.550,-0.029,-0.123,-0.982
6/14/2018 12:08:56.575,-0.067,-0.085,-0.953
6/14/2018 12:08:56.600,-0.067,-0.114,-1.026
6/14/2018 12:08:56.625,-0.059,-0.07,-0.965
6/14/2018 12:08:56.650,-0.056,-0.082,-0.982
6/14/2018 12:08:56.675,-0.062,-0.085,-0.991
6/14/2018 12:08:56.700,-0.053,-0.085,-0.991
6/14/2018 12:08:56.725,-0.059,-0.07,-0.988
6/14/2018 12:08:56.750,-0.053,-0.07,-0.982
6/14/2018 12:08:56.775,-0.053,-0.067,-0.982
6/14/2018 12:08:56.800,-0.056,-0.059,-0.988
6/14/2018 12:08:56.825,-0.029,-0.091,-0.968
6/14/2018 12:08:56.850,-0.029,-0.111,-0.979
6/14/2018 12:08:56.875,-0.047,-0.097,-0.994
6/14/2018 12:08:56.900,-0.047,-0.138,-0.977
6/14/2018 12:08:56.925,-0.067,-0.114,-0.979
6/14/2018 12:08:56.950,-0.085,-0.117,-0.982
6/14/2018 12:08:56.975,-0.091,-0.041,-0.977
6/14/2018 12:08:57.000,-0.1,-0.041,-0.991
6/14/2018 12:08:57.025,-0.082,-0.003,-0.979
6/14/2018 12:08:57.050,-0.073,0,-0.979
6/14/2018 12:08:57.075,-0.067,-0.012,-0.982
6/14/2018 12:08:57.100,-0.062,-0.003,-0.982
6/14/2018 12:08:57.125,-0.067,-0.023,-0.979
6/14/2018 12:08:57.150,-0.07,-0.026,-0.982
6/14/2018 12:08:57.175,-0.073,-0.018,-0.974
6/14/2018 12:08:57.200,-0.1,-0.053,-0.982
6/14/2018 12:08:57.225,-0.114,-0.044,-0.979
6/14/2018 12:08:57.250,-0.085,0,-0.977
6/14/2018 12:08:57.275,-0.097,-0.003,-0.988
6/14/2018 12:08:57.300,-0.085,0.023,-0.982
6/14/2018 12:08:57.325,-0.032,0.056,-0.982
6/14/2018 12:08:57.350,-0.018,0.044,-0.979
6/14/2018 12:08:57.375,0.009,0.053,-0.991
6/14/2018 12:08:57.400,-0.032,0.044,-0.982
6/14/2018 12:08:57.425,-0.009,0.041,-0.979
6/14/2018 12:08:57.450,-0.053,0.041,-0.977
6/14/2018 12:08:57.475,-0.018,0.047,-0.977
6/14/2018 12:08:57.500,-0.029,0.059,-0.979
6/14/2018 12:08:57.525,0.026,0.059,-0.994
6/14/2018 12:08:57.550,0.026,0.07,-0.994
6/14/2018 12:08:57.575,0.053,0.044,-0.979
6/14/2018 12:08:57.600,0.07,0.032,-0.982
6/14/2018 12:08:57.625,0.073,0.032,-0.997
6/14/2018 12:08:57.650,0.082,0.015,-0.994
6/14/2018 12:08:57.675,0.082,0.018,-1.006
6/14/2018 12:08:57.700,0.07,0.003,-0.968
6/14/2018 12:08:57.725,0.073,0.07,-1.032
6/14/2018 12:08:57.750,0.076,-0.009,-0.953
6/14/2018 12:08:57.775,0.082,0.044,-0.979
6/14/2018 12:08:57.800,0.114,0.041,-1.018
6/14/2018 12:08:57.825,0.132,-0.026,-1.009
6/14/2018 12:08:57.850,0.126,-0.026,-0.991
6/14/2018 12:08:57.875,0.132,-0.073,-0.997
6/14/2018 12:08:57.900,0.129,-0.076,-1.003
6/14/2018 12:08:57.925,0.106,-0.082,-0.982
6/14/2018 12:08:57.950,0.1,-0.114,-0.988
6/14/2018 12:08:57.975,0.117,-0.067,-0.994
6/14/2018 12:08:58.000,0.114,-0.076,-0.988
6/14/2018 12:08:58.025,0.129,-0.073,-0.979
6/14/2018 12:08:58.050,0.141,-0.085,-0.988
6/14/2018 12:08:58.075,0.103,-0.144,-0.988
6/14/2018 12:08:58.100,0.12,-0.141,-0.994
6/14/2018 12:08:58.125,0.103,-0.161,-0.988
6/14/2018 12:08:58.150,0.073,-0.188,-0.982
6/14/2018 12:08:58.175,0.009,-0.211,-0.994
6/14/2018 12:08:58.200,-0.009,-0.196,-0.982
6/14/2018 12:08:58.225,-0.047,-0.188,-0.991
6/14/2018 12:08:58.250,-0.029,-0.176,-0.994
6/14/2018 12:08:58.275,0.032,-0.17,-0.988
6/14/2018 12:08:58.300,0.029,-0.188,-0.991
6/14/2018 12:08:58.325,0.059,-0.22,-0.974
6/14/2018 12:08:58.350,-0.009,-0.22,-0.988
6/14/2018 12:08:58.375,-0.088,-0.182,-0.935
6/14/2018 12:08:58.400,-0.111,-0.199,-1.003
6/14/2018 12:08:58.425,-0.141,-0.147,-0.988
6/14/2018 12:08:58.450,-0.111,-0.144,-0.982
6/14/2018 12:08:58.475,-0.15,-0.123,-0.979
6/14/2018 12:08:58.500,-0.103,-0.158,-0.968
6/14/2018 12:08:58.525,-0.132,-0.132,-0.962
6/14/2018 12:08:58.550,-0.147,-0.123,-0.977
6/14/2018 12:08:58.575,-0.158,-0.129,-0.979
6/14/2018 12:08:58.600,-0.188,-0.067,-0.979
6/14/2018 12:08:58.625,-0.161,0.003,-0.965
6/14/2018 12:08:58.650,-0.17,-0.038,-0.977
6/14/2018 12:08:58.675,-0.196,-0.018,-1.003
6/14/2018 12:08:58.700,-0.155,0.012,-0.962
6/14/2018 12:08:58.725,-0.191,-0.038,-0.982
6/14/2018 12:08:58.750,-0.243,-0.023,-0.977
6/14/2018 12:08:58.775,-0.211,0.062,-1.003
6/14/2018 12:08:58.800,-0.144,0.091,-0.974
6/14/2018 12:08:58.825,-0.097,0.141,-0.974
6/14/2018 12:08:58.850,-0.082,0.152,-0.982
6/14/2018 12:08:58.875,-0.044,0.141,-0.988
6/14/2018 12:08:58.900,-0.032,0.129,-0.979
6/14/2018 12:08:58.925,-0.009,0.141,-0.979
6/14/2018 12:08:58.950,-0.053,0.144,-0.968
6/14/2018 12:08:58.975,-0.073,0.155,-0.977
6/14/2018 12:08:59.000,0,0.188,-0.988
6/14/2018 12:08:59.025,0.073,0.191,-1.018
6/14/2018 12:08:59.050,0.129,0.141,-0.977
6/14/2018 12:08:59.075,0.147,0.114,-0.962
6/14/2018 12:08:59.100,0.155,0.085,-0.921
6/14/2018 12:08:59.125,0.217,0.1,-1.053
6/14/2018 12:08:59.150,0.211,0.044,-1.009
6/14/2018 12:08:59.175,0.211,0,-0.991
6/14/2018 12:08:59.200,0.22,-0.023,-1.021
6/14/2018 12:08:59.225,0.217,-0.029,-1.012
6/14/2018 12:08:59.250,0.22,-0.026,-1.009
6/14/2018 12:08:59.275,0.196,-0.103,-0.968
6/14/2018 12:08:59.300,0.191,-0.129,-0.974
6/14/2018 12:08:59.325,0.196,-0.158,-1.006
6/14/2018 12:08:59.350,0.188,-0.161,-0.988
6/14/2018 12:08:59.375,0.214,-0.167,-1.003
6/14/2018 12:08:59.400,0.22,-0.196,-1.009
6/14/2018 12:08:59.425,0.185,-0.24,-0.979
6/14/2018 12:08:59.450,0.114,-0.29,-0.979
6/14/2018 12:08:59.475,0.053,-0.311,-0.988
6/14/2018 12:08:59.500,0.009,-0.311,-0.994
6/14/2018 12:08:59.525,-0.032,-0.302,-0.988
6/14/2018 12:08:59.550,-0.053,-0.29,-0.982
6/14/2018 12:08:59.575,-0.026,-0.305,-1.012
6/14/2018 12:08:59.600,-0.07,-0.314,-1.021
6/14/2018 12:08:59.625,-0.144,-0.226,-0.933
6/14/2018 12:08:59.650,-0.173,-0.232,-0.953
6/14/2018 12:08:59.675,-0.191,-0.217,-0.991
6/14/2018 12:08:59.700,-0.191,-0.176,-0.962
6/14/2018 12:08:59.725,-0.196,-0.173,-0.962
6/14/2018 12:08:59.750,-0.246,-0.196,-1.003
6/14/2018 12:08:59.775,-0.284,-0.191,-1.009
6/14/2018 12:08:59.800,-0.314,-0.147,-1.006
6/14/2018 12:08:59.825,-0.32,-0.091,-0.991
6/14/2018 12:08:59.850,-0.299,0.038,-1.003
6/14/2018 12:08:59.875,-0.249,0.097,-0.977
6/14/2018 12:08:59.900,-0.246,0.111,-0.935
6/14/2018 12:08:59.925,-0.185,0.185,-0.977
6/14/2018 12:08:59.950,-0.158,0.185,-0.991
6/14/2018 12:08:59.975,-0.132,0.196,-0.991
6/14/2018 12:09:00.000,-0.144,0.211,-0.991
6/14/2018 12:09:00.025,-0.117,0.238,-0.991
6/14/2018 12:09:00.050,-0.047,0.261,-0.974
6/14/2018 12:09:00.075,0.053,0.261,-0.977
6/14/2018 12:09:00.100,0.114,0.243,-0.991
6/14/2018 12:09:00.125,0.132,0.243,-1.003
6/14/2018 12:09:00.150,0.158,0.238,-1.026
6/14/2018 12:09:00.175,0.202,0.202,-0.979
6/14/2018 12:09:00.200,0.255,0.155,-1.009
6/14/2018 12:09:00.225,0.317,0.152,-1.062
6/14/2018 12:09:00.250,0.334,0.056,-1.059
6/14/2018 12:09:00.275,0.331,0,-1.026
6/14/2018 12:09:00.300,0.334,-0.023,-1.035
6/14/2018 12:09:00.325,0.34,-0.059,-1.026
6/14/2018 12:09:00.350,0.326,-0.047,-1.003
6/14/2018 12:09:00.375,0.328,-0.1,-0.982
6/14/2018 12:09:00.400,0.287,-0.202,-0.965
6/14/2018 12:09:00.425,0.22,-0.27,-0.988
6/14/2018 12:09:00.450,0.182,-0.287,-0.977
6/14/2018 12:09:00.475,0.158,-0.305,-0.988
6/14/2018 12:09:00.500,0.129,-0.326,-1.012
6/14/2018 12:09:00.525,0.114,-0.331,-0.994
6/14/2018 12:09:00.550,0.117,-0.352,-0.988
6/14/2018 12:09:00.575,0.047,-0.384,-1.035
6/14/2018 12:09:00.600,-0.073,-0.361,-1.009
6/14/2018 12:09:00.625,-0.111,-0.343,-0.982
6/14/2018 12:09:00.650,-0.182,-0.282,-0.918
6/14/2018 12:09:00.675,-0.191,-0.29,-0.979
6/14/2018 12:09:00.700,-0.243,-0.252,-0.974
6/14/2018 12:09:00.725,-0.249,-0.214,-0.947
6/14/2018 12:09:00.750,-0.258,-0.176,-0.924
6/14/2018 12:09:00.775,-0.331,-0.117,-0.977
6/14/2018 12:09:00.800,-0.331,-0.038,-0.979
6/14/2018 12:09:00.825,-0.287,0.038,-0.974
6/14/2018 12:09:00.850,-0.276,0.047,-0.977
6/14/2018 12:09:00.875,-0.284,0.038,-1.003
6/14/2018 12:09:00.900,-0.246,0.1,-0.974
6/14/2018 12:09:00.925,-0.255,0.117,-0.956
6/14/2018 12:09:00.950,-0.196,0.205,-0.941
6/14/2018 12:09:00.975,-0.114,0.252,-0.991
6/14/2018 12:09:01.000,-0.073,0.243,-0.997
6/14/2018 12:09:01.025,-0.067,0.252,-1.009
6/14/2018 12:09:01.050,-0.097,0.27,-0.988
6/14/2018 12:09:01.075,-0.038,0.296,-0.965
6/14/2018 12:09:01.100,0.088,0.273,-0.962
6/14/2018 12:09:01.125,0.147,0.261,-1.006
6/14/2018 12:09:01.150,0.22,0.226,-1.047
6/14/2018 12:09:01.175,0.24,0.191,-1.05
6/14/2018 12:09:01.200,0.232,0.1,-0.974
6/14/2018 12:09:01.225,0.299,0.111,-1.021
6/14/2018 12:09:01.250,0.302,0.076,-1.012
6/14/2018 12:09:01.275,0.32,0.059,-1.012
6/14/2018 12:09:01.300,0.343,0.059,-1.012
6/14/2018 12:09:01.325,0.361,-0.023,-0.994
6/14/2018 12:09:01.350,0.299,-0.111,-0.968
6/14/2018 12:09:01.375,0.305,-0.126,-0.974
6/14/2018 12:09:01.400,0.302,-0.17,-0.994
6/14/2018 12:09:01.425,0.299,-0.196,-1.012
6/14/2018 12:09:01.450,0.284,-0.243,-1.012
6/14/2018 12:09:01.475,0.232,-0.311,-1.035
6/14/2018 12:09:01.500,0.135,-0.367,-1.035
6/14/2018 12:09:01.525,0.059,-0.381,-1.021
6/14/2018 12:09:01.550,0.012,-0.372,-0.997
6/14/2018 12:09:01.575,-0.047,-0.381,-1.026
6/14/2018 12:09:01.600,-0.062,-0.367,-1.009
6/14/2018 12:09:01.625,-0.097,-0.331,-0.979
6/14/2018 12:09:01.650,-0.141,-0.29,-0.927
6/14/2018 12:09:01.675,-0.173,-0.302,-0.982
6/14/2018 12:09:01.700,-0.235,-0.243,-0.977
6/14/2018 12:09:01.725,-0.258,-0.202,-0.953
6/14/2018 12:09:01.750,-0.261,-0.173,-0.938
6/14/2018 12:09:01.775,-0.293,-0.132,-0.95
6/14/2018 12:09:01.800,-0.299,-0.062,-0.938
6/14/2018 12:09:01.825,-0.305,0,-0.95
6/14/2018 12:09:01.850,-0.326,0.047,-0.988
6/14/2018 12:09:01.875,-0.314,0.073,-0.956
6/14/2018 12:09:01.900,-0.287,0.117,-0.947
6/14/2018 12:09:01.925,-0.232,0.199,-0.977
6/14/2018 12:09:01.950,-0.158,0.226,-0.979
6/14/2018 12:09:01.975,-0.114,0.238,-0.988
6/14/2018 12:09:02.000,-0.097,0.232,-0.994
6/14/2018 12:09:02.025,-0.082,0.238,-0.982
6/14/2018 12:09:02.050,-0.041,0.243,-0.977
6/14/2018 12:09:02.075,0.053,0.252,-0.979
6/14/2018 12:09:02.100,0.106,0.243,-0.991
6/14/2018 12:09:02.125,0.126,0.246,-1.003
6/14/2018 12:09:02.150,0.158,0.243,-1.009
6/14/2018 12:09:02.175,0.205,0.217,-1.006
6/14/2018 12:09:02.200,0.29,0.114,-1.006
6/14/2018 12:09:02.225,0.334,0.091,-1.05
6/14/2018 12:09:02.250,0.343,0.038,-1.053
6/14/2018 12:09:02.275,0.32,-0.015,-1.009
6/14/2018 12:09:02.300,0.317,-0.056,-1.003
6/14/2018 12:09:02.325,0.331,-0.047,-1.026
6/14/2018 12:09:02.350,0.328,-0.106,-1.012
6/14/2018 12:09:02.375,0.308,-0.147,-0.977
6/14/2018 12:09:02.400,0.243,-0.246,-0.947
6/14/2018 12:09:02.425,0.202,-0.29,-0.968
6/14/2018 12:09:02.450,0.199,-0.284,-0.979
6/14/2018 12:09:02.475,0.173,-0.311,-1.006
6/14/2018 12:09:02.500,0.158,-0.337,-1.009
6/14/2018 12:09:02.525,0.111,-0.367,-1.018
6/14/2018 12:09:02.550,0.067,-0.399,-1.041
6/14/2018 12:09:02.575,-0.056,-0.402,-1.038
6/14/2018 12:09:02.600,-0.111,-0.384,-1.021
6/14/2018 12:09:02.625,-0.135,-0.343,-0.979
6/14/2018 12:09:02.650,-0.205,-0.32,-1.021
6/14/2018 12:09:02.675,-0.214,-0.296,-1.003
6/14/2018 12:09:02.700,-0.255,-0.243,-0.982
6/14/2018 12:09:02.725,-0.287,-0.202,-0.991
6/14/2018 12:09:02.750,-0.284,-0.152,-0.974
6/14/2018 12:09:02.775,-0.314,-0.073,-0.974
6/14/2018 12:09:02.800,-0.299,-0.047,-0.974
6/14/2018 12:09:02.825,-0.29,-0.015,-0.962
6/14/2018 12:09:02.850,-0.293,0.012,-0.974
6/14/2018 12:09:02.875,-0.317,0.023,-0.956
6/14/2018 12:09:02.900,-0.317,0.111,-0.897
6/14/2018 12:09:02.925,-0.249,0.188,-0.994
6/14/2018 12:09:02.950,-0.176,0.229,-1.003
6/14/2018 12:09:02.975,-0.132,0.252,-0.977
6/14/2018 12:09:03.000,-0.091,0.252,-0.974
6/14/2018 12:09:03.025,-0.111,0.243,-0.988
6/14/2018 12:09:03.050,-0.032,0.273,-0.982
6/14/2018 12:09:03.075,0.053,0.267,-0.991
6/14/2018 12:09:03.100,0.147,0.243,-0.997
6/14/2018 12:09:03.125,0.15,0.211,-0.977
6/14/2018 12:09:03.150,0.15,0.214,-0.965
6/14/2018 12:09:03.175,0.211,0.176,-0.994
6/14/2018 12:09:03.200,0.246,0.123,-0.988
6/14/2018 12:09:03.225,0.279,0.067,-0.994
6/14/2018 12:09:03.250,0.287,0.012,-0.994
6/14/2018 12:09:03.275,0.29,-0.029,-0.977
6/14/2018 12:09:03.300,0.293,-0.053,-0.968
6/14/2018 12:09:03.325,0.299,-0.106,-1.023
6/14/2018 12:09:03.350,0.284,-0.196,-1.032
6/14/2018 12:09:03.375,0.261,-0.196,-0.979
6/14/2018 12:09:03.400,0.255,-0.22,-0.968
6/14/2018 12:09:03.425,0.246,-0.252,-0.991
6/14/2018 12:09:03.450,0.191,-0.311,-0.977
6/14/2018 12:09:03.475,0.132,-0.358,-0.962
6/14/2018 12:09:03.500,0.053,-0.381,-0.994
6/14/2018 12:09:03.525,0.009,-0.372,-0.965
6/14/2018 12:09:03.550,0.003,-0.352,-0.95
6/14/2018 12:09:03.575,-0.003,-0.372,-0.994
6/14/2018 12:09:03.600,-0.085,-0.375,-1.038
6/14/2018 12:09:03.625,-0.167,-0.346,-1.012
6/14/2018 12:09:03.650,-0.226,-0.305,-1.021
6/14/2018 12:09:03.675,-0.22,-0.27,-0.962
6/14/2018 12:09:03.700,-0.249,-0.252,-0.982
6/14/2018 12:09:03.725,-0.287,-0.217,-0.988
6/14/2018 12:09:03.750,-0.29,-0.176,-0.988
6/14/2018 12:09:03.775,-0.326,-0.129,-0.982
6/14/2018 12:09:03.800,-0.334,-0.082,-0.988
6/14/2018 12:09:03.825,-0.317,0.032,-0.982
6/14/2018 12:09:03.850,-0.276,0.073,-0.965
6/14/2018 12:09:03.875,-0.284,0.076,-0.991
6/14/2018 12:09:03.900,-0.258,0.132,-0.979
6/14/2018 12:09:03.925,-0.22,0.158,-0.962
6/14/2018 12:09:03.950,-0.202,0.196,-0.979
6/14/2018 12:09:03.975,-0.205,0.22,-0.968
6/14/2018 12:09:04.000,-0.155,0.24,-0.982
6/14/2018 12:09:04.025,-0.073,0.27,-0.974
6/14/2018 12:09:04.050,-0.044,0.273,-0.968
6/14/2018 12:09:04.075,0.029,0.267,-0.977
6/14/2018 12:09:04.100,0.103,0.255,-0.979
6/14/2018 12:09:04.125,0.129,0.258,-1.003
6/14/2018 12:09:04.150,0.199,0.22,-1.021
6/14/2018 12:09:04.175,0.217,0.202,-0.953
6/14/2018 12:09:04.200,0.317,0.167,-1.062
6/14/2018 12:09:04.225,0.308,0.041,-0.968
6/14/2018 12:09:04.250,0.305,0,-0.962
6/14/2018 12:09:04.275,0.32,-0.023,-0.997
6/14/2018 12:09:04.300,0.308,-0.088,-1.006
6/14/2018 12:09:04.325,0.273,-0.144,-0.977
6/14/2018 12:09:04.350,0.246,-0.238,-0.997
6/14/2018 12:09:04.375,0.22,-0.258,-1.018
6/14/2018 12:09:04.400,0.188,-0.258,-1.006
6/14/2018 12:09:04.425,0.196,-0.252,-0.982
6/14/2018 12:09:04.450,0.199,-0.273,-1.003
6/14/2018 12:09:04.475,0.117,-0.355,-0.994
6/14/2018 12:09:04.500,0.07,-0.37,-0.95
6/14/2018 12:09:04.525,-0.026,-0.384,-0.903
6/14/2018 12:09:04.550,-0.047,-0.361,-0.906
6/14/2018 12:09:04.575,-0.097,-0.331,-0.903
6/14/2018 12:09:04.600,-0.135,-0.337,-0.95
6/14/2018 12:09:04.625,-0.147,-0.305,-0.933
6/14/2018 12:09:04.650,-0.196,-0.361,-1.065
6/14/2018 12:09:04.675,-0.264,-0.29,-1.047
6/14/2018 12:09:04.700,-0.29,-0.282,-1.006
6/14/2018 12:09:04.725,-0.32,-0.22,-1.003
6/14/2018 12:09:04.750,-0.326,-0.129,-0.982
6/14/2018 12:09:04.775,-0.305,-0.106,-0.988
6/14/2018 12:09:04.800,-0.346,-0.076,-1.009
6/14/2018 12:09:04.825,-0.349,-0.044,-1.003
6/14/2018 12:09:04.850,-0.314,0.015,-0.962
6/14/2018 12:09:04.875,-0.326,0.082,-1.003
6/14/2018 12:09:04.900,-0.27,0.167,-0.979
6/14/2018 12:09:04.925,-0.191,0.202,-0.997
6/14/2018 12:09:04.950,-0.161,0.205,-0.968
6/14/2018 12:09:04.975,-0.176,0.214,-0.962
6/14/2018 12:09:05.000,-0.144,0.229,-0.974
6/14/2018 12:09:05.025,-0.1,0.255,-0.988
6/14/2018 12:09:05.050,-0.082,0.282,-0.974
6/14/2018 12:09:05.075,0.015,0.284,-0.991
6/14/2018 12:09:05.100,0.085,0.261,-0.974
6/14/2018 12:09:05.125,0.103,0.255,-0.95
6/14/2018 12:09:05.150,0.158,0.24,-0.953
6/14/2018 12:09:05.175,0.217,0.17,-0.968
6/14/2018 12:09:05.200,0.279,0.202,-1.026
6/14/2018 12:09:05.225,0.293,0.111,-0.982
6/14/2018 12:09:05.250,0.314,0.012,-0.977
6/14/2018 12:09:05.275,0.326,-0.029,-0.982
6/14/2018 12:09:05.300,0.328,-0.073,-0.991
6/14/2018 12:09:05.325,0.302,-0.138,-0.974
6/14/2018 12:09:05.350,0.27,-0.214,-0.991
6/14/2018 12:09:05.375,0.22,-0.261,-0.997
6/14/2018 12:09:05.400,0.205,-0.24,-0.994
6/14/2018 12:09:05.425,0.211,-0.246,-0.997
6/14/2018 12:09:05.450,0.161,-0.299,-1.018
6/14/2018 12:09:05.475,0.103,-0.331,-0.988
6/14/2018 12:09:05.500,0.053,-0.343,-0.941
6/14/2018 12:09:05.525,0.041,-0.343,-0.938
6/14/2018 12:09:05.550,-0.003,-0.358,-0.968
6/14/2018 12:09:05.575,-0.056,-0.37,-0.95
6/14/2018 12:09:05.600,-0.111,-0.375,-0.974
6/14/2018 12:09:05.625,-0.211,-0.299,-0.924
6/14/2018 12:09:05.650,-0.214,-0.32,-0.994
6/14/2018 12:09:05.675,-0.273,-0.27,-1.009
6/14/2018 12:09:05.700,-0.279,-0.232,-1.009
6/14/2018 12:09:05.725,-0.302,-0.214,-1.003
6/14/2018 12:09:05.750,-0.349,-0.123,-0.997
6/14/2018 12:09:05.775,-0.32,-0.106,-0.968
6/14/2018 12:09:05.800,-0.334,-0.018,-0.977
6/14/2018 12:09:05.825,-0.328,0.038,-1.018
6/14/2018 12:09:05.850,-0.29,0.044,-0.979
6/14/2018 12:09:05.875,-0.279,0.073,-1.006
6/14/2018 12:09:05.900,-0.299,0.114,-0.956
6/14/2018 12:09:05.925,-0.261,0.155,-0.968
6/14/2018 12:09:05.950,-0.214,0.196,-0.979
6/14/2018 12:09:05.975,-0.161,0.252,-0.962
6/14/2018 12:09:06.000,-0.076,0.273,-0.974
6/14/2018 12:09:06.025,-0.038,0.27,-0.977
6/14/2018 12:09:06.050,-0.012,0.282,-0.968
6/14/2018 12:09:06.075,0.07,0.287,-0.994
6/14/2018 12:09:06.100,0.1,0.287,-0.988
6/14/2018 12:09:06.125,0.158,0.258,-0.965
6/14/2018 12:09:06.150,0.243,0.196,-0.991
6/14/2018 12:09:06.175,0.246,0.123,-0.938
6/14/2018 12:09:06.200,0.305,0.103,-1.018
6/14/2018 12:09:06.225,0.317,0.056,-1.032
6/14/2018 12:09:06.250,0.308,0.044,-1.012
6/14/2018 12:09:06.275,0.314,0.012,-0.988
6/14/2018 12:09:06.300,0.34,-0.023,-0.974
6/14/2018 12:09:06.325,0.314,-0.097,-0.974
6/14/2018 12:09:06.350,0.299,-0.141,-0.979
6/14/2018 12:09:06.375,0.264,-0.191,-0.968
6/14/2018 12:09:06.400,0.276,-0.199,-0.991
6/14/2018 12:09:06.425,0.258,-0.246,-1.021
6/14/2018 12:09:06.450,0.229,-0.287,-0.979
6/14/2018 12:09:06.475,0.129,-0.358,-1.006
6/14/2018 12:09:06.500,0.032,-0.381,-1.05
6/14/2018 12:09:06.525,-0.018,-0.358,-0.991
6/14/2018 12:09:06.550,-0.038,-0.352,-1.032
6/14/2018 12:09:06.575,-0.067,-0.343,-0.974
6/14/2018 12:09:06.600,-0.07,-0.343,-0.962
6/14/2018 12:09:06.625,-0.196,-0.311,-0.977
6/14/2018 12:09:06.650,-0.188,-0.311,-0.968
6/14/2018 12:09:06.675,-0.226,-0.217,-0.921
6/14/2018 12:09:06.700,-0.255,-0.199,-0.965
6/14/2018 12:09:06.725,-0.302,-0.147,-0.977
6/14/2018 12:09:06.750,-0.302,-0.073,-0.947
6/14/2018 12:09:06.775,-0.29,-0.067,-0.962
6/14/2018 12:09:06.800,-0.331,-0.012,-0.988
6/14/2018 12:09:06.825,-0.358,-0.059,-0.982
6/14/2018 12:09:06.850,-0.32,0.038,-1.003
6/14/2018 12:09:06.875,-0.287,0.144,-0.927
6/14/2018 12:09:06.900,-0.246,0.155,-0.988
6/14/2018 12:09:06.925,-0.202,0.226,-0.974
6/14/2018 12:09:06.950,-0.141,0.258,-0.977
6/14/2018 12:09:06.975,-0.106,0.255,-0.988
6/14/2018 12:09:07.000,-0.041,0.284,-0.988
6/14/2018 12:09:07.025,0.018,0.296,-0.997
6/14/2018 12:09:07.050,0.056,0.276,-0.994
6/14/2018 12:09:07.075,0.126,0.258,-0.991
6/14/2018 12:09:07.100,0.155,0.232,-0.991
6/14/2018 12:09:07.125,0.17,0.243,-1.006
6/14/2018 12:09:07.150,0.199,0.211,-0.982
6/14/2018 12:09:07.175,0.27,0.176,-1.006
6/14/2018 12:09:07.200,0.29,0.085,-0.962
6/14/2018 12:09:07.225,0.328,0.038,-0.991
6/14/2018 12:09:07.250,0.334,-0.009,-1.009
6/14/2018 12:09:07.275,0.326,-0.062,-1.021
6/14/2018 12:09:07.300,0.302,-0.126,-1.018
6/14/2018 12:09:07.325,0.302,-0.123,-1.009
6/14/2018 12:09:07.350,0.305,-0.117,-0.994
6/14/2018 12:09:07.375,0.279,-0.191,-0.977
6/14/2018 12:09:07.400,0.243,-0.243,-0.977
6/14/2018 12:09:07.425,0.235,-0.261,-0.977
6/14/2018 12:09:07.450,0.185,-0.317,-1.012
6/14/2018 12:09:07.475,0.126,-0.34,-1.018
6/14/2018 12:09:07.500,0.129,-0.346,-0.982
6/14/2018 12:09:07.525,0.056,-0.384,-1.026
6/14/2018 12:09:07.550,-0.023,-0.387,-1.032
6/14/2018 12:09:07.575,-0.085,-0.396,-1.041
6/14/2018 12:09:07.600,-0.15,-0.352,-0.968
6/14/2018 12:09:07.625,-0.211,-0.296,-0.965
6/14/2018 12:09:07.650,-0.249,-0.258,-0.988
6/14/2018 12:09:07.675,-0.249,-0.226,-0.974
6/14/2018 12:09:07.700,-0.279,-0.202,-0.982
6/14/2018 12:09:07.725,-0.284,-0.161,-0.968
6/14/2018 12:09:07.750,-0.308,-0.082,-0.979
6/14/2018 12:09:07.775,-0.308,-0.023,-0.977
6/14/2018 12:09:07.800,-0.284,0,-0.977
6/14/2018 12:09:07.825,-0.27,0.032,-0.962
6/14/2018 12:09:07.850,-0.299,0.023,-0.979
6/14/2018 12:09:07.875,-0.314,0.082,-0.95
6/14/2018 12:09:07.900,-0.243,0.182,-1.006
6/14/2018 12:09:07.925,-0.155,0.252,-0.968
6/14/2018 12:09:07.950,-0.114,0.243,-0.965
6/14/2018 12:09:07.975,-0.073,0.258,-1.006
6/14/2018 12:09:08.000,-0.056,0.267,-0.997
6/14/2018 12:09:08.025,-0.056,0.258,-0.956
6/14/2018 12:09:08.050,0.023,0.267,-0.953
6/14/2018 12:09:08.075,0.085,0.267,-0.956
6/14/2018 12:09:08.100,0.199,0.252,-1.026
6/14/2018 12:09:08.125,0.229,0.217,-1.041
6/14/2018 12:09:08.150,0.264,0.167,-1.032
6/14/2018 12:09:08.175,0.305,0.129,-1.062
6/14/2018 12:09:08.200,0.276,0.047,-0.933
6/14/2018 12:09:08.225,0.287,0.012,-0.962
6/14/2018 12:09:08.250,0.326,0,-1.032
6/14/2018 12:09:08.275,0.326,-0.103,-1.035
6/14/2018 12:09:08.300,0.29,-0.144,-1.012
6/14/2018 12:09:08.325,0.273,-0.188,-0.994
6/14/2018 12:09:08.350,0.255,-0.226,-0.991
6/14/2018 12:09:08.375,0.243,-0.226,-0.997
6/14/2018 12:09:08.400,0.235,-0.24,-0.988
6/14/2018 12:09:08.425,0.22,-0.284,-1.006
6/14/2018 12:09:08.450,0.173,-0.326,-0.991
6/14/2018 12:09:08.475,0.07,-0.37,-0.982
6/14/2018 12:09:08.500,0.026,-0.372,-0.988
6/14/2018 12:09:08.525,-0.003,-0.367,-0.997
6/14/2018 12:09:08.550,-0.009,-0.361,-0.979
6/14/2018 12:09:08.575,-0.053,-0.372,-1.006
6/14/2018 12:09:08.600,-0.076,-0.34,-0.927
6/14/2018 12:09:08.625,-0.188,-0.337,-1.009
6/14/2018 12:09:08.650,-0.27,-0.284,-1.023
6/14/2018 12:09:08.675,-0.279,-0.22,-0.988
6/14/2018 12:09:08.700,-0.293,-0.205,-0.965
6/14/2018 12:09:08.725,-0.32,-0.17,-0.982
6/14/2018 12:09:08.750,-0.331,-0.044,-0.974
6/14/2018 12:09:08.775,-0.317,-0.003,-0.979
6/14/2018 12:09:08.800,-0.302,0.023,-0.991
6/14/2018 12:09:08.825,-0.293,0.053,-0.974
6/14/2018 12:09:08.850,-0.243,0.114,-0.974
6/14/2018 12:09:08.875,-0.249,0.106,-0.977
6/14/2018 12:09:08.900,-0.229,0.17,-0.979
6/14/2018 12:09:08.925,-0.211,0.182,-0.977
6/14/2018 12:09:08.950,-0.182,0.214,-0.991
6/14/2018 12:09:08.975,-0.17,0.243,-0.974
6/14/2018 12:09:09.000,-0.1,0.27,-0.977
6/14/2018 12:09:09.025,0.032,0.287,-0.982
6/14/2018 12:09:09.050,0.07,0.258,-0.968
6/14/2018 12:09:09.075,0.141,0.24,-0.994
6/14/2018 12:09:09.100,0.135,0.238,-0.994
6/14/2018 12:09:09.125,0.161,0.232,-1.006
6/14/2018 12:09:09.150,0.226,0.158,-0.956
6/14/2018 12:09:09.175,0.326,0.141,-1.088
6/14/2018 12:09:09.200,0.32,0.085,-1.035
6/14/2018 12:09:09.225,0.308,-0.003,-0.977
6/14/2018 12:09:09.250,0.317,-0.053,-0.965
6/14/2018 12:09:09.275,0.326,-0.085,-0.979
6/14/2018 12:09:09.300,0.293,-0.173,-1.006
6/14/2018 12:09:09.325,0.27,-0.196,-0.994
6/14/2018 12:09:09.350,0.235,-0.252,-0.988
6/14/2018 12:09:09.375,0.214,-0.27,-1.003
6/14/2018 12:09:09.400,0.176,-0.302,-0.994
6/14/2018 12:09:09.425,0.126,-0.328,-0.997
6/14/2018 12:09:09.450,0.117,-0.331,-0.988
6/14/2018 12:09:09.475,0.073,-0.355,-0.988
6/14/2018 12:09:09.500,0.047,-0.37,-0.974
6/14/2018 12:09:09.525,-0.056,-0.384,-0.947
6/14/2018 12:09:09.550,-0.103,-0.372,-0.962
6/14/2018 12:09:09.575,-0.15,-0.34,-0.956
6/14/2018 12:09:09.600,-0.196,-0.299,-0.977
6/14/2018 12:09:09.625,-0.202,-0.296,-1.003
6/14/2018 12:09:09.650,-0.232,-0.273,-1.006
6/14/2018 12:09:09.675,-0.261,-0.246,-1.026
6/14/2018 12:09:09.700,-0.32,-0.22,-1.021
6/14/2018 12:09:09.725,-0.326,-0.182,-1.003
6/14/2018 12:09:09.750,-0.334,-0.091,-1.006
6/14/2018 12:09:09.775,-0.32,-0.059,-0.997
6/14/2018 12:09:09.800,-0.317,0.009,-1.003
6/14/2018 12:09:09.825,-0.326,0.003,-0.962
6/14/2018 12:09:09.850,-0.314,0.07,-0.947
6/14/2018 12:09:09.875,-0.279,0.161,-0.991
6/14/2018 12:09:09.900,-0.196,0.22,-0.988
6/14/2018 12:09:09.925,-0.12,0.246,-0.968
6/14/2018 12:09:09.950,-0.111,0.232,-0.968
6/14/2018 12:09:09.975,-0.129,0.226,-0.979
6/14/2018 12:09:10.000,-0.117,0.246,-0.977
6/14/2018 12:09:10.025,-0.044,0.273,-0.977
6/14/2018 12:09:10.050,0.032,0.284,-0.979
6/14/2018 12:09:10.075,0.085,0.276,-0.988
6/14/2018 12:09:10.100,0.15,0.226,-0.956
6/14/2018 12:09:10.125,0.173,0.22,-0.95
6/14/2018 12:09:10.150,0.205,0.167,-0.938
6/14/2018 12:09:10.175,0.308,0.147,-1.073
6/14/2018 12:09:10.200,0.299,0.091,-1.035
6/14/2018 12:09:10.225,0.299,0.015,-0.982
6/14/2018 12:09:10.250,0.302,-0.073,-0.956
6/14/2018 12:09:10.275,0.32,-0.088,-0.994
6/14/2018 12:09:10.300,0.287,-0.152,-1.012
6/14/2018 12:09:10.325,0.258,-0.217,-1.006
6/14/2018 12:09:10.350,0.232,-0.238,-0.977
6/14/2018 12:09:10.375,0.235,-0.252,-1.003
6/14/2018 12:09:10.400,0.196,-0.314,-0.988
6/14/2018 12:09:10.425,0.117,-0.361,-0.979
6/14/2018 12:09:10.450,0.07,-0.361,-0.982
6/14/2018 12:09:10.475,0.032,-0.358,-0.977
6/14/2018 12:09:10.500,-0.015,-0.352,-0.968
6/14/2018 12:09:10.525,-0.012,-0.367,-0.991
6/14/2018 12:09:10.550,-0.056,-0.387,-1.003
6/14/2018 12:09:10.575,-0.161,-0.375,-0.997
6/14/2018 12:09:10.600,-0.229,-0.37,-1.065
6/14/2018 12:09:10.625,-0.258,-0.287,-0.991
6/14/2018 12:09:10.650,-0.243,-0.261,-0.977
6/14/2018 12:09:10.675,-0.302,-0.217,-0.982
6/14/2018 12:09:10.700,-0.305,-0.155,-0.979
6/14/2018 12:09:10.725,-0.326,-0.111,-0.982
6/14/2018 12:09:10.750,-0.328,-0.047,-0.977
6/14/2018 12:09:10.775,-0.326,-0.029,-0.979
6/14/2018 12:09:10.800,-0.326,0.003,-1.009
6/14/2018 12:09:10.825,-0.287,0.082,-0.982
6/14/2018 12:09:10.850,-0.249,0.123,-0.956
6/14/2018 12:09:10.875,-0.273,0.106,-0.974
6/14/2018 12:09:10.900,-0.287,0.144,-0.974
6/14/2018 12:09:10.925,-0.246,0.191,-0.956
6/14/2018 12:09:10.950,-0.15,0.252,-0.956
6/14/2018 12:09:10.975,-0.088,0.282,-0.968
6/14/2018 12:09:11.000,-0.023,0.29,-0.991
6/14/2018 12:09:11.025,0.103,0.27,-0.997
6/14/2018 12:09:11.050,0.141,0.243,-1.009
6/14/2018 12:09:11.075,0.091,0.24,-0.979
6/14/2018 12:09:11.100,0.097,0.258,-0.95
6/14/2018 12:09:11.125,0.167,0.255,-0.953
6/14/2018 12:09:11.150,0.243,0.188,-0.933
6/14/2018 12:09:11.175,0.287,0.1,-0.962
6/14/2018 12:09:11.200,0.305,0.056,-0.997
6/14/2018 12:09:11.225,0.302,0.012,-0.997
6/14/2018 12:09:11.250,0.293,0,-1.003
6/14/2018 12:09:11.275,0.328,0.018,-0.974
6/14/2018 12:09:11.300,0.326,-0.117,-0.994
6/14/2018 12:09:11.325,0.284,-0.202,-0.988
6/14/2018 12:09:11.350,0.27,-0.202,-0.977
6/14/2018 12:09:11.375,0.261,-0.238,-0.997
6/14/2018 12:09:11.400,0.243,-0.27,-1.035
6/14/2018 12:09:11.425,0.196,-0.302,-1.021
6/14/2018 12:09:11.450,0.15,-0.337,-0.956
6/14/2018 12:09:11.475,0.085,-0.37,-0.962
6/14/2018 12:09:11.500,-0.012,-0.384,-1.009
6/14/2018 12:09:11.525,-0.067,-0.367,-0.977
6/14/2018 12:09:11.550,-0.103,-0.361,-0.979
6/14/2018 12:09:11.575,-0.167,-0.305,-0.938
6/14/2018 12:09:11.600,-0.188,-0.32,-0.997
6/14/2018 12:09:11.625,-0.214,-0.299,-0.991
6/14/2018 12:09:11.650,-0.217,-0.238,-0.941
6/14/2018 12:09:11.675,-0.273,-0.173,-0.95
6/14/2018 12:09:11.700,-0.308,-0.144,-0.988
6/14/2018 12:09:11.725,-0.314,-0.088,-0.977
6/14/2018 12:09:11.750,-0.308,-0.023,-0.965
6/14/2018 12:09:11.775,-0.299,-0.003,-0.977
6/14/2018 12:09:11.800,-0.328,-0.018,-1.003
6/14/2018 12:09:11.825,-0.308,0.073,-1.009
6/14/2018 12:09:11.850,-0.258,0.138,-0.938
6/14/2018 12:09:11.875,-0.211,0.188,-0.977
6/14/2018 12:09:11.900,-0.17,0.229,-0.991
6/14/2018 12:09:11.925,-0.106,0.246,-0.979
6/14/2018 12:09:11.950,-0.088,0.238,-0.979
6/14/2018 12:09:11.975,-0.085,0.258,-0.982
6/14/2018 12:09:12.000,-0.015,0.284,-0.974
6/14/2018 12:09:12.025,0.056,0.276,-0.997
6/14/2018 12:09:12.050,0.12,0.255,-0.979
6/14/2018 12:09:12.075,0.173,0.226,-0.997
6/14/2018 12:09:12.100,0.188,0.217,-1.006
6/14/2018 12:09:12.125,0.191,0.205,-0.965
6/14/2018 12:09:12.150,0.284,0.161,-1.032
6/14/2018 12:09:12.175,0.293,0.091,-0.956
6/14/2018 12:09:12.200,0.317,0.018,-0.991
6/14/2018 12:09:12.225,0.326,-0.026,-1.032
6/14/2018 12:09:12.250,0.317,-0.041,-1.012
6/14/2018 12:09:12.275,0.287,-0.091,-0.991
6/14/2018 12:09:12.300,0.302,-0.132,-1.009
6/14/2018 12:09:12.325,0.299,-0.132,-0.997
6/14/2018 12:09:12.350,0.308,-0.144,-0.979
6/14/2018 12:09:12.375,0.29,-0.205,-0.991
6/14/2018 12:09:12.400,0.232,-0.284,-0.991
6/14/2018 12:09:12.425,0.161,-0.331,-0.994
6/14/2018 12:09:12.450,0.117,-0.352,-1.009
6/14/2018 12:09:12.475,0.044,-0.37,-1.026
6/14/2018 12:09:12.500,0.009,-0.37,-0.997
6/14/2018 12:09:12.525,0.003,-0.352,-0.965
6/14/2018 12:09:12.550,-0.047,-0.358,-0.988
6/14/2018 12:09:12.575,-0.126,-0.302,-0.883
6/14/2018 12:09:12.600,-0.182,-0.32,-0.982
6/14/2018 12:09:12.625,-0.249,-0.276,-1.012
6/14/2018 12:09:12.650,-0.258,-0.217,-0.974
6/14/2018 12:09:12.675,-0.279,-0.199,-0.974
6/14/2018 12:09:12.700,-0.287,-0.126,-0.938
6/14/2018 12:09:12.725,-0.279,-0.103,-0.935
6/14/2018 12:09:12.750,-0.32,-0.018,-0.956
6/14/2018 12:09:12.775,-0.305,0.038,-0.994
6/14/2018 12:09:12.800,-0.293,0.041,-0.965
6/14/2018 12:09:12.825,-0.299,0.076,-0.988
6/14/2018 12:09:12.850,-0.276,0.117,-0.968
6/14/2018 12:09:12.875,-0.217,0.173,-0.968
6/14/2018 12:09:12.900,-0.161,0.238,-0.977
6/14/2018 12:09:12.925,-0.12,0.273,-0.997
6/14/2018 12:09:12.950,-0.038,0.282,-0.997
6/14/2018 12:09:12.975,0.012,0.267,-0.991
6/14/2018 12:09:13.000,0.012,0.258,-0.977
6/14/2018 12:09:13.025,0.038,0.252,-0.977
6/14/2018 12:09:13.050,0.073,0.252,-0.956
6/14/2018 12:09:13.075,0.144,0.243,-0.982
6/14/2018 12:09:13.100,0.202,0.24,-1.009
6/14/2018 12:09:13.125,0.258,0.155,-0.988
6/14/2018 12:09:13.150,0.328,0.138,-1.073
6/14/2018 12:09:13.175,0.302,0.056,-0.997
6/14/2018 12:09:13.200,0.314,0.026,-0.991
6/14/2018 12:09:13.225,0.331,-0.003,-1.026
6/14/2018 12:09:13.250,0.34,-0.044,-1.035
6/14/2018 12:09:13.275,0.328,-0.076,-0.997
6/14/2018 12:09:13.300,0.27,-0.214,-0.977
6/14/2018 12:09:13.325,0.232,-0.276,-0.991
6/14/2018 12:09:13.350,0.202,-0.255,-1.003
6/14/2018 12:09:13.375,0.22,-0.214,-0.994
6/14/2018 12:09:13.400,0.24,-0.24,-1.006
6/14/2018 12:09:13.425,0.235,-0.287,-1.018
6/14/2018 12:09:13.450,0.144,-0.343,-1.032
6/14/2018 12:09:13.475,0.073,-0.367,-1.035
6/14/2018 12:09:13.500,0.015,-0.367,-1.003
6/14/2018 12:09:13.525,-0.012,-0.352,-0.988
6/14/2018 12:09:13.550,-0.047,-0.358,-1.012
6/14/2018 12:09:13.575,-0.106,-0.305,-0.889
6/14/2018 12:09:13.600,-0.141,-0.326,-0.924
6/14/2018 12:09:13.625,-0.22,-0.284,-0.982
6/14/2018 12:09:13.650,-0.27,-0.229,-0.965
6/14/2018 12:09:13.675,-0.293,-0.167,-0.977
6/14/2018 12:09:13.700,-0.305,-0.138,-0.974
6/14/2018 12:09:13.725,-0.29,-0.088,-0.956
6/14/2018 12:09:13.750,-0.302,-0.047,-0.965
6/14/2018 12:09:13.775,-0.302,0.009,-0.974
6/14/2018 12:09:13.800,-0.343,-0.009,-0.988
6/14/2018 12:09:13.825,-0.32,0.1,-0.977
6/14/2018 12:09:13.850,-0.235,0.196,-0.974
6/14/2018 12:09:13.875,-0.202,0.188,-0.965
6/14/2018 12:09:13.900,-0.155,0.232,-0.977
6/14/2018 12:09:13.925,-0.144,0.232,-0.988
6/14/2018 12:09:13.950,-0.097,0.246,-0.988
6/14/2018 12:09:13.975,-0.059,0.273,-0.997
6/14/2018 12:09:14.000,0.018,0.284,-0.994
6/14/2018 12:09:14.025,0.106,0.267,-0.982
6/14/2018 12:09:14.050,0.135,0.232,-0.977
6/14/2018 12:09:14.075,0.185,0.217,-1.012
6/14/2018 12:09:14.100,0.196,0.202,-1.021
6/14/2018 12:09:14.125,0.217,0.158,-0.979
6/14/2018 12:09:14.150,0.317,0.123,-1.106
6/14/2018 12:09:14.175,0.32,0.067,-1.053
6/14/2018 12:09:14.200,0.317,-0.003,-1.009
6/14/2018 12:09:14.225,0.326,-0.059,-0.994
6/14/2018 12:09:14.250,0.328,-0.07,-0.997
6/14/2018 12:09:14.275,0.302,-0.114,-1.003
6/14/2018 12:09:14.300,0.308,-0.114,-0.997
6/14/2018 12:09:14.325,0.293,-0.176,-0.988
6/14/2018 12:09:14.350,0.287,-0.217,-1.006
6/14/2018 12:09:14.375,0.217,-0.299,-1.009
6/14/2018 12:09:14.400,0.17,-0.328,-0.991
6/14/2018 12:09:14.425,0.082,-0.372,-0.965
6/14/2018 12:09:14.450,0.047,-0.361,-0.953
6/14/2018 12:09:14.475,0.015,-0.367,-1.035
6/14/2018 12:09:14.500,0.009,-0.372,-1.026
6/14/2018 12:09:14.525,-0.041,-0.375,-1.021
6/14/2018 12:09:14.550,-0.085,-0.381,-1.018
6/14/2018 12:09:14.575,-0.17,-0.296,-0.956
6/14/2018 12:09:14.600,-0.188,-0.27,-0.962
6/14/2018 12:09:14.625,-0.24,-0.267,-1.018
6/14/2018 12:09:14.650,-0.232,-0.296,-0.982
6/14/2018 12:09:14.675,-0.264,-0.24,-0.965
6/14/2018 12:09:14.700,-0.314,-0.158,-0.968
6/14/2018 12:09:14.725,-0.334,-0.07,-0.982
6/14/2018 12:09:14.750,-0.317,0.018,-0.974
6/14/2018 12:09:14.775,-0.299,0.023,-0.956
6/14/2018 12:09:14.800,-0.287,0.067,-0.956
6/14/2018 12:09:14.825,-0.29,0.076,-0.962
6/14/2018 12:09:14.850,-0.261,0.144,-0.965
6/14/2018 12:09:14.875,-0.232,0.191,-0.974
6/14/2018 12:09:14.900,-0.173,0.243,-0.977
6/14/2018 12:09:14.925,-0.106,0.261,-0.979
6/14/2018 12:09:14.950,-0.067,0.258,-0.991
6/14/2018 12:09:14.975,-0.015,0.261,-0.991
6/14/2018 12:09:15.000,-0.015,0.255,-0.977
6/14/2018 12:09:15.025,0.044,0.252,-0.982
6/14/2018 12:09:15.050,0.097,0.276,-1.021
6/14/2018 12:09:15.075,0.158,0.246,-1.021
6/14/2018 12:09:15.100,0.211,0.196,-0.968
6/14/2018 12:09:15.125,0.235,0.144,-0.962
6/14/2018 12:09:15.150,0.32,0.138,-1.065
6/14/2018 12:09:15.175,0.317,0.053,-1.021
6/14/2018 12:09:15.200,0.308,0.012,-0.991
6/14/2018 12:09:15.225,0.317,-0.044,-0.994
6/14/2018 12:09:15.250,0.317,-0.1,-1.018
6/14/2018 12:09:15.275,0.29,-0.161,-1.018
6/14/2018 12:09:15.300,0.246,-0.211,-0.991
6/14/2018 12:09:15.325,0.217,-0.232,-0.962
6/14/2018 12:09:15.350,0.235,-0.243,-0.994
6/14/2018 12:09:15.375,0.226,-0.267,-0.997
6/14/2018 12:09:15.400,0.161,-0.337,-1.006
6/14/2018 12:09:15.425,0.097,-0.367,-0.974
6/14/2018 12:09:15.450,0.038,-0.372,-0.95
6/14/2018 12:09:15.475,-0.018,-0.37,-0.962
6/14/2018 12:09:15.500,-0.044,-0.381,-0.977
6/14/2018 12:09:15.525,-0.047,-0.375,-0.994
6/14/2018 12:09:15.550,-0.088,-0.37,-1.003
6/14/2018 12:09:15.575,-0.202,-0.305,-0.988
6/14/2018 12:09:15.600,-0.255,-0.273,-1.003
6/14/2018 12:09:15.625,-0.276,-0.255,-1.003
6/14/2018 12:09:15.650,-0.258,-0.238,-0.977
6/14/2018 12:09:15.675,-0.284,-0.152,-0.965
6/14/2018 12:09:15.700,-0.308,-0.126,-0.988
6/14/2018 12:09:15.725,-0.308,-0.117,-0.988
6/14/2018 12:09:15.750,-0.308,-0.056,-0.979
6/14/2018 12:09:15.775,-0.293,0.015,-0.974
6/14/2018 12:09:15.800,-0.279,0.056,-0.935
6/14/2018 12:09:15.825,-0.302,0.1,-0.935
6/14/2018 12:09:15.850,-0.249,0.161,-1.003
6/14/2018 12:09:15.875,-0.214,0.173,-0.974
6/14/2018 12:09:15.900,-0.196,0.214,-0.974
6/14/2018 12:09:15.925,-0.205,0.232,-0.979
6/14/2018 12:09:15.950,-0.161,0.255,-0.962
6/14/2018 12:09:15.975,-0.047,0.276,-0.962
6/14/2018 12:09:16.000,0.015,0.282,-0.953
6/14/2018 12:09:16.025,0.085,0.27,-0.982
6/14/2018 12:09:16.050,0.135,0.258,-1.006
6/14/2018 12:09:16.075,0.135,0.246,-0.988
6/14/2018 12:09:16.100,0.202,0.214,-0.997
6/14/2018 12:09:16.125,0.261,0.141,-0.962
6/14/2018 12:09:16.150,0.287,0.117,-0.988
6/14/2018 12:09:16.175,0.326,0.067,-1.018
6/14/2018 12:09:16.200,0.314,0,-0.982
6/14/2018 12:09:16.225,0.308,-0.056,-0.982
6/14/2018 12:09:16.250,0.305,-0.111,-0.991
6/14/2018 12:09:16.275,0.287,-0.173,-1.006
6/14/2018 12:09:16.300,0.249,-0.217,-0.994
6/14/2018 12:09:16.325,0.22,-0.246,-0.965
6/14/2018 12:09:16.350,0.205,-0.282,-0.979
6/14/2018 12:09:16.375,0.155,-0.326,-0.991
6/14/2018 12:09:16.400,0.103,-0.34,-0.965
6/14/2018 12:09:16.425,0.07,-0.343,-0.956
6/14/2018 12:09:16.450,0.067,-0.355,-0.956
6/14/2018 12:09:16.475,-0.023,-0.381,-0.982
6/14/2018 12:09:16.500,-0.076,-0.372,-0.924
6/14/2018 12:09:16.525,-0.129,-0.352,-0.935
6/14/2018 12:09:16.550,-0.161,-0.314,-0.912
6/14/2018 12:09:16.575,-0.205,-0.32,-1.023
6/14/2018 12:09:16.600,-0.235,-0.29,-1.026
6/14/2018 12:09:16.625,-0.249,-0.258,-0.997
6/14/2018 12:09:16.650,-0.287,-0.246,-1.009
6/14/2018 12:09:16.675,-0.305,-0.229,-1.006
6/14/2018 12:09:16.700,-0.326,-0.117,-0.988
6/14/2018 12:09:16.725,-0.34,-0.056,-0.991
6/14/2018 12:09:16.750,-0.317,0.009,-0.991
6/14/2018 12:09:16.775,-0.29,0.018,-0.982
6/14/2018 12:09:16.800,-0.314,0.003,-0.991
6/14/2018 12:09:16.825,-0.32,0.073,-0.95
6/14/2018 12:09:16.850,-0.293,0.129,-0.956
6/14/2018 12:09:16.875,-0.211,0.202,-0.979
6/14/2018 12:09:16.900,-0.144,0.232,-0.979
6/14/2018 12:09:16.925,-0.135,0.226,-0.962
6/14/2018 12:09:16.950,-0.135,0.243,-0.982
6/14/2018 12:09:16.975,-0.088,0.282,-0.991
6/14/2018 12:09:17.000,-0.012,0.29,-0.982
6/14/2018 12:09:17.025,0.038,0.302,-0.977
6/14/2018 12:09:17.050,0.103,0.261,-0.938
6/14/2018 12:09:17.075,0.185,0.229,-0.935
6/14/2018 12:09:17.100,0.211,0.191,-0.921
6/14/2018 12:09:17.125,0.255,0.138,-0.953
6/14/2018 12:09:17.150,0.27,0.117,-0.965
6/14/2018 12:09:17.175,0.29,0.056,-0.974
6/14/2018 12:09:17.200,0.29,0.012,-0.947
6/14/2018 12:09:17.225,0.302,-0.053,-0.962
6/14/2018 12:09:17.250,0.305,-0.132,-0.988
6/14/2018 12:09:17.275,0.287,-0.185,-1.026
6/14/2018 12:09:17.300,0.258,-0.188,-0.994
6/14/2018 12:09:17.325,0.246,-0.214,-0.974
6/14/2018 12:09:17.350,0.205,-0.287,-0.982
6/14/2018 12:09:17.375,0.188,-0.317,-0.962
6/14/2018 12:09:17.400,0.129,-0.352,-0.965
6/14/2018 12:09:17.425,0.067,-0.367,-1.003
6/14/2018 12:09:17.450,0.018,-0.358,-1.003
6/14/2018 12:09:17.475,-0.009,-0.355,-0.982
6/14/2018 12:09:17.500,-0.056,-0.346,-0.979
6/14/2018 12:09:17.525,-0.1,-0.367,-0.979
6/14/2018 12:09:17.550,-0.129,-0.355,-0.977
6/14/2018 12:09:17.575,-0.235,-0.337,-1.059
6/14/2018 12:09:17.600,-0.24,-0.284,-0.991
6/14/2018 12:09:17.625,-0.258,-0.226,-0.974
6/14/2018 12:09:17.650,-0.293,-0.191,-0.994
6/14/2018 12:09:17.675,-0.299,-0.158,-0.988
6/14/2018 12:09:17.700,-0.34,-0.123,-0.994
6/14/2018 12:09:17.725,-0.331,-0.067,-0.994
6/14/2018 12:09:17.750,-0.331,-0.032,-0.979
6/14/2018 12:09:17.775,-0.317,0.026,-1.003
6/14/2018 12:09:17.800,-0.305,0.056,-0.956
6/14/2018 12:09:17.825,-0.27,0.114,-0.997
6/14/2018 12:09:17.850,-0.226,0.188,-0.968
6/14/2018 12:09:17.875,-0.229,0.17,-0.956
6/14/2018 12:09:17.900,-0.211,0.188,-0.956
6/14/2018 12:09:17.925,-0.17,0.229,-0.968
6/14/2018 12:09:17.950,-0.097,0.273,-0.977
6/14/2018 12:09:17.975,-0.067,0.282,-0.977
6/14/2018 12:09:18.000,0.029,0.284,-0.977
6/14/2018 12:09:18.025,0.076,0.255,-0.965
6/14/2018 12:09:18.050,0.067,0.273,-0.935
6/14/2018 12:09:18.075,0.129,0.27,-0.95
6/14/2018 12:09:18.100,0.191,0.226,-0.962
6/14/2018 12:09:18.125,0.299,0.152,-1.009
6/14/2018 12:09:18.150,0.293,0.091,-0.977
6/14/2018 12:09:18.175,0.308,0.032,-0.994
6/14/2018 12:09:18.200,0.32,-0.015,-1.032
6/14/2018 12:09:18.225,0.302,-0.047,-1.006
6/14/2018 12:09:18.250,0.279,-0.1,-0.974
6/14/2018 12:09:18.275,0.32,-0.106,-1.012
6/14/2018 12:09:18.300,0.287,-0.196,-1.021
6/14/2018 12:09:18.325,0.243,-0.24,-0.979
6/14/2018 12:09:18.350,0.226,-0.258,-0.974
6/14/2018 12:09:18.375,0.196,-0.302,-0.982
6/14/2018 12:09:18.400,0.147,-0.328,-0.997
6/14/2018 12:09:18.425,0.091,-0.346,-0.974
6/14/2018 12:09:18.450,0.047,-0.358,-0.921
6/14/2018 12:09:18.475,-0.026,-0.361,-0.965
6/14/2018 12:09:18.500,-0.062,-0.352,-0.941
6/14/2018 12:09:18.525,-0.117,-0.337,-0.956
6/14/2018 12:09:18.550,-0.141,-0.296,-0.894
6/14/2018 12:09:18.575,-0.191,-0.32,-1.006
6/14/2018 12:09:18.600,-0.246,-0.27,-0.997
6/14/2018 12:09:18.625,-0.249,-0.24,-0.974
6/14/2018 12:09:18.650,-0.29,-0.188,-0.968
6/14/2018 12:09:18.675,-0.314,-0.132,-0.974
6/14/2018 12:09:18.700,-0.299,-0.076,-0.953
6/14/2018 12:09:18.725,-0.32,-0.041,-0.977
6/14/2018 12:09:18.750,-0.328,-0.041,-0.994
6/14/2018 12:09:18.775,-0.346,-0.047,-1.009
6/14/2018 12:09:18.800,-0.314,0.097,-1.021
6/14/2018 12:09:18.825,-0.29,0.114,-0.962
6/14/2018 12:09:18.850,-0.24,0.185,-0.982
6/14/2018 12:09:18.875,-0.182,0.24,-0.968
6/14/2018 12:09:18.900,-0.103,0.243,-0.982
6/14/2018 12:09:18.925,-0.082,0.24,-0.977
6/14/2018 12:09:18.950,-0.111,0.252,-0.974
6/14/2018 12:09:18.975,-0.076,0.27,-0.965
6/14/2018 12:09:19.000,0.009,0.282,-0.962
6/14/2018 12:09:19.025,0.117,0.258,-0.965
6/14/2018 12:09:19.050,0.144,0.232,-0.968
6/14/2018 12:09:19.075,0.167,0.229,-0.982
6/14/2018 12:09:19.100,0.199,0.182,-0.941
6/14/2018 12:09:19.125,0.27,0.202,-1.021
6/14/2018 12:09:19.150,0.276,0.126,-0.941
6/14/2018 12:09:19.175,0.314,0.062,-0.977
6/14/2018 12:09:19.200,0.34,0.012,-1.023
6/14/2018 12:09:19.225,0.317,-0.047,-1.021
6/14/2018 12:09:19.250,0.299,-0.1,-0.962
6/14/2018 12:09:19.275,0.299,-0.129,-0.977
6/14/2018 12:09:19.300,0.326,-0.132,-1.018
6/14/2018 12:09:19.325,0.293,-0.185,-0.997
6/14/2018 12:09:19.350,0.27,-0.243,-0.991
6/14/2018 12:09:19.375,0.214,-0.302,-1.018
6/14/2018 12:09:19.400,0.141,-0.331,-0.982
6/14/2018 12:09:19.425,0.073,-0.358,-0.982
6/14/2018 12:09:19.450,0.018,-0.361,-1.003
6/14/2018 12:09:19.475,0.018,-0.358,-0.977
6/14/2018 12:09:19.500,-0.059,-0.343,-0.935
6/14/2018 12:09:19.525,-0.103,-0.337,-0.909
6/14/2018 12:09:19.550,-0.173,-0.287,-0.891
6/14/2018 12:09:19.575,-0.185,-0.331,-1.009
6/14/2018 12:09:19.600,-0.258,-0.267,-1.012
6/14/2018 12:09:19.625,-0.261,-0.22,-0.982
6/14/2018 12:09:19.650,-0.279,-0.182,-0.968
6/14/2018 12:09:19.675,-0.314,-0.144,-0.977
6/14/2018 12:09:19.700,-0.314,-0.073,-0.962
6/14/2018 12:09:19.725,-0.299,-0.018,-0.947
6/14/2018 12:09:19.750,-0.328,0.009,-0.991
6/14/2018 12:09:19.775,-0.299,0.062,-1.009
6/14/2018 12:09:19.800,-0.264,0.097,-0.974
6/14/2018 12:09:19.825,-0.284,0.097,-0.938
6/14/2018 12:09:19.850,-0.255,0.158,-0.982
6/14/2018 12:09:19.875,-0.235,0.191,-0.977
6/14/2018 12:09:19.900,-0.114,0.282,-0.979
6/14/2018 12:09:19.925,-0.032,0.287,-0.991
6/14/2018 12:09:19.950,0.018,0.273,-0.994
6/14/2018 12:09:19.975,0.032,0.267,-1.003
6/14/2018 12:09:20.000,0.041,0.261,-0.991
6/14/2018 12:09:20.025,0.056,0.276,-0.982
6/14/2018 12:09:20.050,0.132,0.255,-0.947
6/14/2018 12:09:20.075,0.202,0.217,-0.947
6/14/2018 12:09:20.100,0.232,0.158,-0.921
6/14/2018 12:09:20.125,0.343,0.123,-1.109
6/14/2018 12:09:20.150,0.343,0.032,-1.067
6/14/2018 12:09:20.175,0.314,-0.003,-1.021
6/14/2018 12:09:20.200,0.32,-0.012,-1.006
6/14/2018 12:09:20.225,0.334,-0.026,-1.009
6/14/2018 12:09:20.250,0.308,-0.067,-0.982
6/14/2018 12:09:20.275,0.279,-0.155,-0.974
6/14/2018 12:09:20.300,0.27,-0.185,-0.991
6/14/2018 12:09:20.325,0.255,-0.205,-1.018
6/14/2018 12:09:20.350,0.246,-0.214,-1.012
6/14/2018 12:09:20.375,0.235,-0.255,-0.988
6/14/2018 12:09:20.400,0.185,-0.32,-0.979
6/14/2018 12:09:20.425,0.141,-0.355,-1.035
6/14/2018 12:09:20.450,0.032,-0.375,-1.023
6/14/2018 12:09:20.475,-0.023,-0.375,-1.035
6/14/2018 12:09:20.500,-0.059,-0.358,-1.012
6/14/2018 12:09:20.525,-0.111,-0.34,-0.994
6/14/2018 12:09:20.550,-0.126,-0.296,-0.912
6/14/2018 12:09:20.575,-0.15,-0.343,-0.965
6/14/2018 12:09:20.600,-0.226,-0.276,-0.962
6/14/2018 12:09:20.625,-0.258,-0.22,-0.95
6/14/2018 12:09:20.650,-0.305,-0.167,-0.977
6/14/2018 12:09:20.675,-0.331,-0.1,-0.988
6/14/2018 12:09:20.700,-0.293,-0.067,-0.962
6/14/2018 12:09:20.725,-0.299,-0.009,-0.962
6/14/2018 12:09:20.750,-0.299,0.012,-0.994
6/14/2018 12:09:20.775,-0.317,0.003,-0.982
6/14/2018 12:09:20.800,-0.308,0.085,-0.968
6/14/2018 12:09:20.825,-0.284,0.152,-0.977
6/14/2018 12:09:20.850,-0.199,0.202,-0.956
6/14/2018 12:09:20.875,-0.141,0.226,-0.979
6/14/2018 12:09:20.900,-0.106,0.243,-0.991
6/14/2018 12:09:20.925,-0.082,0.252,-0.968
6/14/2018 12:09:20.950,-0.032,0.267,-1.012
6/14/2018 12:09:20.975,0.018,0.29,-0.988
6/14/2018 12:09:21.000,0.114,0.273,-0.991
6/14/2018 12:09:21.025,0.141,0.252,-0.997
6/14/2018 12:09:21.050,0.161,0.226,-0.988
6/14/2018 12:09:21.075,0.217,0.188,-0.994
6/14/2018 12:09:21.100,0.22,0.141,-0.962
6/14/2018 12:09:21.125,0.305,0.152,-1.079
6/14/2018 12:09:21.150,0.343,0.076,-1.088
6/14/2018 12:09:21.175,0.326,-0.003,-1.038
6/14/2018 12:09:21.200,0.32,-0.026,-1.006
6/14/2018 12:09:21.225,0.346,-0.041,-1.009
6/14/2018 12:09:21.250,0.305,-0.129,-0.997
6/14/2018 12:09:21.275,0.308,-0.111,-0.965
6/14/2018 12:09:21.300,0.29,-0.176,-0.974
6/14/2018 12:09:21.325,0.261,-0.217,-1.006
6/14/2018 12:09:21.350,0.235,-0.24,-1.003
6/14/2018 12:09:21.375,0.22,-0.27,-0.979
6/14/2018 12:09:21.400,0.185,-0.317,-1.023
6/14/2018 12:09:21.425,0.132,-0.343,-1.082
6/14/2018 12:09:21.450,0.114,-0.358,-1.047
6/14/2018 12:09:21.475,0.07,-0.381,-1.026
6/14/2018 12:09:21.500,0.009,-0.39,-1.035
6/14/2018 12:09:21.525,-0.082,-0.39,-1.026
6/14/2018 12:09:21.550,-0.196,-0.273,-0.897
6/14/2018 12:09:21.575,-0.199,-0.299,-0.962
6/14/2018 12:09:21.600,-0.27,-0.246,-1.006
6/14/2018 12:09:21.625,-0.27,-0.202,-0.974
6/14/2018 12:09:21.650,-0.261,-0.196,-0.935
6/14/2018 12:09:21.675,-0.331,-0.111,-0.965
6/14/2018 12:09:21.700,-0.305,-0.047,-0.974
6/14/2018 12:09:21.725,-0.287,0.009,-0.953
6/14/2018 12:09:21.750,-0.32,0.029,-0.979
6/14/2018 12:09:21.775,-0.29,0.047,-0.982
6/14/2018 12:09:21.800,-0.273,0.091,-0.935
6/14/2018 12:09:21.825,-0.27,0.155,-0.977
6/14/2018 12:09:21.850,-0.22,0.217,-0.982
6/14/2018 12:09:21.875,-0.126,0.27,-0.988
6/14/2018 12:09:21.900,-0.082,0.27,-0.979
6/14/2018 12:09:21.925,-0.047,0.27,-0.988
6/14/2018 12:09:21.950,0.003,0.27,-0.991
6/14/2018 12:09:21.975,0.053,0.261,-0.982
6/14/2018 12:09:22.000,0.07,0.261,-0.994
6/14/2018 12:09:22.025,0.144,0.246,-1.012
6/14/2018 12:09:22.050,0.214,0.211,-1.026
6/14/2018 12:09:22.075,0.226,0.167,-0.994
6/14/2018 12:09:22.100,0.258,0.123,-0.947
6/14/2018 12:09:22.125,0.293,0.085,-1.003
6/14/2018 12:09:22.150,0.305,0.059,-1.012
6/14/2018 12:09:22.175,0.305,0.018,-0.982
6/14/2018 12:09:22.200,0.328,0.003,-1.012
6/14/2018 12:09:22.225,0.317,-0.067,-1.032
6/14/2018 12:09:22.250,0.308,-0.132,-1.012
6/14/2018 12:09:22.275,0.279,-0.158,-0.965
6/14/2018 12:09:22.300,0.258,-0.211,-0.965
6/14/2018 12:09:22.325,0.243,-0.246,-0.994
6/14/2018 12:09:22.350,0.243,-0.252,-0.979
6/14/2018 12:09:22.375,0.235,-0.302,-1.012
6/14/2018 12:09:22.400,0.091,-0.387,-1.018
6/14/2018 12:09:22.425,0.003,-0.387,-0.977
6/14/2018 12:09:22.450,-0.038,-0.361,-0.947
6/14/2018 12:09:22.475,-0.062,-0.352,-0.988
6/14/2018 12:09:22.500,-0.076,-0.343,-0.979
6/14/2018 12:09:22.525,-0.038,-0.343,-0.947
6/14/2018 12:09:22.550,-0.129,-0.299,-0.909
6/14/2018 12:09:22.575,-0.173,-0.302,-0.994
6/14/2018 12:09:22.600,-0.284,-0.238,-1.038
6/14/2018 12:09:22.625,-0.276,-0.226,-0.991
6/14/2018 12:09:22.650,-0.264,-0.185,-0.953
6/14/2018 12:09:22.675,-0.317,-0.085,-0.979
6/14/2018 12:09:22.700,-0.29,-0.111,-0.974
6/14/2018 12:09:22.725,-0.302,-0.026,-0.956
6/14/2018 12:09:22.750,-0.305,0.012,-0.95
6/14/2018 12:09:22.775,-0.305,0.047,-0.965
6/14/2018 12:09:22.800,-0.293,0.126,-0.953
6/14/2018 12:09:22.825,-0.232,0.191,-0.997
6/14/2018 12:09:22.850,-0.188,0.217,-0.962
6/14/2018 12:09:22.875,-0.141,0.246,-0.979
6/14/2018 12:09:22.900,-0.103,0.267,-1.018
6/14/2018 12:09:22.925,-0.088,0.273,-0.982
6/14/2018 12:09:22.950,-0.018,0.267,-0.979
6/14/2018 12:09:22.975,0.047,0.258,-0.974
6/14/2018 12:09:23.000,0.106,0.243,-0.988
6/14/2018 12:09:23.025,0.12,0.252,-0.997
6/14/2018 12:09:23.050,0.147,0.226,-0.982
6/14/2018 12:09:23.075,0.229,0.188,-0.977
6/14/2018 12:09:23.100,0.287,0.155,-1.026
6/14/2018 12:09:23.125,0.317,0.076,-1.012
6/14/2018 12:09:23.150,0.328,0.023,-0.991
6/14/2018 12:09:23.175,0.326,-0.026,-0.988
6/14/2018 12:09:23.200,0.32,-0.082,-0.994
6/14/2018 12:09:23.225,0.302,-0.126,-1.003
6/14/2018 12:09:23.250,0.279,-0.188,-1.018
6/14/2018 12:09:23.275,0.249,-0.205,-1.003
6/14/2018 12:09:23.300,0.217,-0.24,-0.977
6/14/2018 12:09:23.325,0.182,-0.299,-0.979
6/14/2018 12:09:23.350,0.161,-0.302,-0.979
6/14/2018 12:09:23.375,0.129,-0.331,-0.991
6/14/2018 12:09:23.400,0.12,-0.337,-0.977
6/14/2018 12:09:23.425,0.103,-0.367,-0.991
6/14/2018 12:09:23.450,0.012,-0.402,-1.009
6/14/2018 12:09:23.475,-0.018,-0.411,-0.988
6/14/2018 12:09:23.500,-0.126,-0.39,-1.018
6/14/2018 12:09:23.525,-0.176,-0.358,-0.994
6/14/2018 12:09:23.550,-0.24,-0.326,-1.032
6/14/2018 12:09:23.575,-0.258,-0.229,-0.962
6/14/2018 12:09:23.600,-0.249,-0.24,-0.968
6/14/2018 12:09:23.625,-0.308,-0.205,-1.003
6/14/2018 12:09:23.650,-0.302,-0.158,-0.982
6/14/2018 12:09:23.675,-0.314,-0.076,-0.977
6/14/2018 12:09:23.700,-0.331,-0.018,-0.994
6/14/2018 12:09:23.725,-0.314,-0.029,-1.003
6/14/2018 12:09:23.750,-0.293,0,-0.979
6/14/2018 12:09:23.775,-0.302,0.047,-0.977
6/14/2018 12:09:23.800,-0.305,0.076,-0.956
6/14/2018 12:09:23.825,-0.279,0.138,-0.965
6/14/2018 12:09:23.850,-0.211,0.214,-0.991
6/14/2018 12:09:23.875,-0.155,0.24,-0.974
6/14/2018 12:09:23.900,-0.135,0.22,-0.95
6/14/2018 12:09:23.925,-0.114,0.243,-0.962
6/14/2018 12:09:23.950,-0.082,0.282,-0.991
6/14/2018 12:09:23.975,0.018,0.296,-1.009
6/14/2018 12:09:24.000,0.088,0.299,-0.997
6/14/2018 12:09:24.025,0.132,0.252,-0.947
6/14/2018 12:09:24.050,0.191,0.22,-0.935
6/14/2018 12:09:24.075,0.246,0.161,-0.935
6/14/2018 12:09:24.100,0.299,0.152,-1.047
6/14/2018 12:09:24.125,0.287,0.097,-0.997
6/14/2018 12:09:24.150,0.293,0.009,-0.979
6/14/2018 12:09:24.175,0.302,-0.023,-0.977
6/14/2018 12:09:24.200,0.308,-0.088,-0.982
6/14/2018 12:09:24.225,0.284,-0.147,-0.982
6/14/2018 12:09:24.250,0.273,-0.205,-1.018
6/14/2018 12:09:24.275,0.235,-0.226,-1.003
6/14/2018 12:09:24.300,0.229,-0.238,-1.003
6/14/2018 12:09:24.325,0.182,-0.299,-0.997
6/14/2018 12:09:24.350,0.17,-0.317,-0.962
6/14/2018 12:09:24.375,0.114,-0.346,-0.965
6/14/2018 12:09:24.400,0.038,-0.367,-1.018
6/14/2018 12:09:24.425,0,-0.355,-0.974
6/14/2018 12:09:24.450,0,-0.346,-0.956
6/14/2018 12:09:24.475,-0.059,-0.346,-0.962
6/14/2018 12:09:24.500,-0.091,-0.372,-0.991
6/14/2018 12:09:24.525,-0.182,-0.358,-0.997
6/14/2018 12:09:24.550,-0.226,-0.326,-0.994
6/14/2018 12:09:24.575,-0.243,-0.282,-0.979
6/14/2018 12:09:24.600,-0.284,-0.238,-0.988
6/14/2018 12:09:24.625,-0.293,-0.191,-0.982
6/14/2018 12:09:24.650,-0.32,-0.161,-0.979
6/14/2018 12:09:24.675,-0.334,-0.047,-0.977
6/14/2018 12:09:24.700,-0.305,0.003,-0.962
6/14/2018 12:09:24.725,-0.308,0.015,-1.003
6/14/2018 12:09:24.750,-0.305,0.053,-0.991
6/14/2018 12:09:24.775,-0.255,0.088,-0.965
6/14/2018 12:09:24.800,-0.27,0.091,-0.962
6/14/2018 12:09:24.825,-0.246,0.141,-0.988
6/14/2018 12:09:24.850,-0.261,0.155,-0.968
6/14/2018 12:09:24.875,-0.229,0.199,-0.953
6/14/2018 12:09:24.900,-0.173,0.243,-0.953
6/14/2018 12:09:24.925,-0.088,0.296,-0.982
6/14/2018 12:09:24.950,0.023,0.299,-0.977
6/14/2018 12:09:24.975,0.085,0.27,-0.982
6/14/2018 12:09:25.000,0.091,0.261,-0.977
6/14/2018 12:09:25.025,0.117,0.267,-0.994
6/14/2018 12:09:25.050,0.17,0.258,-0.974
6/14/2018 12:09:25.075,0.205,0.205,-0.912
6/14/2018 12:09:25.100,0.326,0.167,-1.05
6/14/2018 12:09:25.125,0.328,0.076,-1.023
6/14/2018 12:09:25.150,0.328,0.015,-1.012
6/14/2018 12:09:25.175,0.328,-0.029,-0.997
6/14/2018 12:09:25.200,0.343,-0.047,-1.006
6/14/2018 12:09:25.225,0.302,-0.114,-0.991
6/14/2018 12:09:25.250,0.299,-0.132,-0.977
6/14/2018 12:09:25.275,0.284,-0.182,-0.974
6/14/2018 12:09:25.300,0.249,-0.24,-0.994
6/14/2018 12:09:25.325,0.205,-0.27,-0.991
6/14/2018 12:09:25.350,0.191,-0.29,-0.997
6/14/2018 12:09:25.375,0.191,-0.314,-1.012
6/14/2018 12:09:25.400,0.091,-0.361,-0.997
6/14/2018 12:09:25.425,0.047,-0.372,-0.979
6/14/2018 12:09:25.450,-0.012,-0.375,-1.023
6/14/2018 12:09:25.475,-0.1,-0.381,-1.05
6/14/2018 12:09:25.500,-0.144,-0.352,-1.003
6/14/2018 12:09:25.525,-0.185,-0.276,-0.927
6/14/2018 12:09:25.550,-0.199,-0.29,-0.982
6/14/2018 12:09:25.575,-0.246,-0.258,-0.977
6/14/2018 12:09:25.600,-0.261,-0.199,-0.95
6/14/2018 12:09:25.625,-0.264,-0.144,-0.921
6/14/2018 12:09:25.650,-0.299,-0.088,-0.938
6/14/2018 12:09:25.675,-0.299,-0.044,-0.965
6/14/2018 12:09:25.700,-0.29,0.003,-0.962
6/14/2018 12:09:25.725,-0.32,-0.009,-0.991
6/14/2018 12:09:25.750,-0.346,-0.009,-0.991
6/14/2018 12:09:25.775,-0.302,0.117,-0.982
6/14/2018 12:09:25.800,-0.249,0.191,-0.968
6/14/2018 12:09:25.825,-0.185,0.229,-0.953
6/14/2018 12:09:25.850,-0.117,0.246,-0.979
6/14/2018 12:09:25.875,-0.073,0.255,-0.991
6/14/2018 12:09:25.900,-0.056,0.24,-0.979
6/14/2018 12:09:25.925,-0.076,0.238,-0.956
6/14/2018 12:09:25.950,0.009,0.252,-0.965
6/14/2018 12:09:25.975,0.073,0.261,-0.977
6/14/2018 12:09:26.000,0.147,0.255,-1.006
6/14/2018 12:09:26.025,0.191,0.217,-0.994
6/14/2018 12:09:26.050,0.205,0.191,-0.997
6/14/2018 12:09:26.075,0.261,0.138,-0.979
6/14/2018 12:09:26.100,0.305,0.144,-1.035
6/14/2018 12:09:26.125,0.349,0.123,-1.094
6/14/2018 12:09:26.150,0.358,0.029,-1.082
6/14/2018 12:09:26.175,0.355,-0.032,-1.047
6/14/2018 12:09:26.200,0.331,-0.082,-1.018
6/14/2018 12:09:26.225,0.314,-0.129,-0.994
6/14/2018 12:09:26.250,0.317,-0.129,-0.982
6/14/2018 12:09:26.275,0.293,-0.182,-0.956
6/14/2018 12:09:26.300,0.27,-0.229,-0.974
6/14/2018 12:09:26.325,0.235,-0.282,-1.003
6/14/2018 12:09:26.350,0.167,-0.326,-0.979
6/14/2018 12:09:26.375,0.103,-0.355,-0.979
6/14/2018 12:09:26.400,0.085,-0.361,-1.026
6/14/2018 12:09:26.425,0.041,-0.367,-1.018
6/14/2018 12:09:26.450,0.015,-0.375,-1.009
6/14/2018 12:09:26.475,-0.029,-0.37,-0.956
6/14/2018 12:09:26.500,-0.059,-0.337,-0.903
6/14/2018 12:09:26.525,-0.185,-0.302,-0.933
6/14/2018 12:09:26.550,-0.246,-0.32,-1.05
6/14/2018 12:09:26.575,-0.284,-0.243,-0.997
6/14/2018 12:09:26.600,-0.29,-0.199,-0.974
6/14/2018 12:09:26.625,-0.293,-0.161,-0.974
6/14/2018 12:09:26.650,-0.331,-0.088,-0.979
6/14/2018 12:09:26.675,-0.305,-0.044,-0.977
6/14/2018 12:09:26.700,-0.29,0.015,-0.956
6/14/2018 12:09:26.725,-0.287,0.044,-0.988
6/14/2018 12:09:26.750,-0.276,0.076,-0.979
6/14/2018 12:09:26.775,-0.276,0.097,-0.933
6/14/2018 12:09:26.800,-0.232,0.167,-0.991
6/14/2018 12:09:26.825,-0.205,0.196,-1.003
6/14/2018 12:09:26.850,-0.147,0.258,-0.982
6/14/2018 12:09:26.875,-0.076,0.282,-0.991
6/14/2018 12:09:26.900,-0.053,0.273,-0.991
6/14/2018 12:09:26.925,-0.015,0.276,-0.974
6/14/2018 12:09:26.950,0.073,0.261,-0.956
6/14/2018 12:09:26.975,0.129,0.214,-0.968
6/14/2018 12:09:27.000,0.144,0.211,-0.982
6/14/2018 12:09:27.025,0.15,0.22,-1.018
6/14/2018 12:09:27.050,0.217,0.185,-1.032
6/14/2018 12:09:27.075,0.264,0.117,-1.006
6/14/2018 12:09:27.100,0.276,0.041,-0.956
6/14/2018 12:09:27.125,0.29,0.012,-0.965
6/14/2018 12:09:27.150,0.293,-0.015,-0.982
6/14/2018 12:09:27.175,0.32,-0.012,-0.994
6/14/2018 12:09:27.200,0.331,-0.026,-1.021
6/14/2018 12:09:27.225,0.314,-0.167,-1.003
6/14/2018 12:09:27.250,0.264,-0.22,-0.956
6/14/2018 12:09:27.275,0.214,-0.27,-0.953
6/14/2018 12:09:27.300,0.191,-0.282,-0.977
6/14/2018 12:09:27.325,0.202,-0.282,-0.982
6/14/2018 12:09:27.350,0.205,-0.305,-0.997
6/14/2018 12:09:27.375,0.155,-0.355,-1.035
6/14/2018 12:09:27.400,0.053,-0.39,-0.997
6/14/2018 12:09:27.425,-0.023,-0.396,-0.974
6/14/2018 12:09:27.450,-0.097,-0.361,-0.953
6/14/2018 12:09:27.475,-0.12,-0.352,-0.974
6/14/2018 12:09:27.500,-0.144,-0.314,-0.947
6/14/2018 12:09:27.525,-0.167,-0.343,-1.026
6/14/2018 12:09:27.550,-0.214,-0.302,-1.003
6/14/2018 12:09:27.575,-0.258,-0.302,-1.018
6/14/2018 12:09:27.600,-0.326,-0.211,-1.021
6/14/2018 12:09:27.625,-0.317,-0.155,-0.988
6/14/2018 12:09:27.650,-0.326,-0.097,-0.982
6/14/2018 12:09:27.675,-0.34,-0.026,-0.991
6/14/2018 12:09:27.700,-0.326,-0.038,-0.974
6/14/2018 12:09:27.725,-0.299,0.059,-0.947
6/14/2018 12:09:27.750,-0.302,0.076,-0.979
6/14/2018 12:09:27.775,-0.264,0.126,-0.988
6/14/2018 12:09:27.800,-0.211,0.196,-0.974
6/14/2018 12:09:27.825,-0.191,0.196,-0.965
6/14/2018 12:09:27.850,-0.185,0.199,-0.977
6/14/2018 12:09:27.875,-0.161,0.22,-0.962
6/14/2018 12:09:27.900,-0.12,0.267,-0.982
6/14/2018 12:09:27.925,-0.044,0.299,-0.991
6/14/2018 12:09:27.950,0.076,0.287,-0.988
6/14/2018 12:09:27.975,0.12,0.261,-0.979
6/14/2018 12:09:28.000,0.161,0.232,-0.968
6/14/2018 12:09:28.025,0.191,0.214,-0.982
6/14/2018 12:09:28.050,0.196,0.182,-0.927
6/14/2018 12:09:28.075,0.305,0.152,-1.065
6/14/2018 12:09:28.100,0.302,0.053,-1.003
6/14/2018 12:09:28.125,0.293,-0.012,-0.977
6/14/2018 12:09:28.150,0.302,-0.038,-0.997
6/14/2018 12:09:28.175,0.308,-0.076,-1.003
6/14/2018 12:09:28.200,0.276,-0.138,-0.982
6/14/2018 12:09:28.225,0.261,-0.173,-1.003
6/14/2018 12:09:28.250,0.243,-0.232,-1.023
6/14/2018 12:09:28.275,0.229,-0.261,-1.018
6/14/2018 12:09:28.300,0.196,-0.299,-0.991
6/14/2018 12:09:28.325,0.155,-0.34,-0.977
6/14/2018 12:09:28.350,0.062,-0.384,-0.979
6/14/2018 12:09:28.375,0.012,-0.372,-0.912
6/14/2018 12:09:28.400,-0.012,-0.367,-0.924
6/14/2018 12:09:28.425,0,-0.361,-0.941
6/14/2018 12:09:28.450,-0.085,-0.361,-0.933
6/14/2018 12:09:28.475,-0.126,-0.367,-0.95
6/14/2018 12:09:28.500,-0.211,-0.32,-0.968
6/14/2018 12:09:28.525,-0.22,-0.337,-1.026
6/14/2018 12:09:28.550,-0.264,-0.243,-0.979
6/14/2018 12:09:28.575,-0.276,-0.229,-0.988
6/14/2018 12:09:28.600,-0.299,-0.205,-1.003
6/14/2018 12:09:28.625,-0.334,-0.152,-1.012
6/14/2018 12:09:28.650,-0.328,-0.1,-1.006
6/14/2018 12:09:28.675,-0.328,-0.067,-0.988
6/14/2018 12:09:28.700,-0.34,-0.015,-1.018
6/14/2018 12:09:28.725,-0.293,0.056,-0.982
6/14/2018 12:09:28.750,-0.273,0.082,-0.997
6/14/2018 12:09:28.775,-0.305,0.111,-0.953
6/14/2018 12:09:28.800,-0.279,0.17,-0.95
6/14/2018 12:09:28.825,-0.205,0.205,-0.977
6/14/2018 12:09:28.850,-0.132,0.246,-0.979
6/14/2018 12:09:28.875,-0.082,0.276,-0.982
6/14/2018 12:09:28.900,-0.047,0.267,-0.968
6/14/2018 12:09:28.925,-0.018,0.261,-0.956
6/14/2018 12:09:28.950,0.018,0.258,-0.968
6/14/2018 12:09:28.975,0.041,0.29,-0.982
6/14/2018 12:09:29.000,0.111,0.282,-0.968
6/14/2018 12:09:29.025,0.199,0.217,-0.95
6/14/2018 12:09:29.050,0.255,0.155,-0.956
6/14/2018 12:09:29.075,0.32,0.132,-1.065
6/14/2018 12:09:29.100,0.317,0.073,-1.041
6/14/2018 12:09:29.125,0.305,0.003,-1.003
6/14/2018 12:09:29.150,0.317,0,-0.982
6/14/2018 12:09:29.175,0.334,-0.041,-1.003
6/14/2018 12:09:29.200,0.314,-0.126,-0.988
6/14/2018 12:09:29.225,0.279,-0.185,-0.991
6/14/2018 12:09:29.250,0.229,-0.24,-0.982
6/14/2018 12:09:29.275,0.202,-0.252,-0.991
6/14/2018 12:09:29.300,0.188,-0.267,-0.982
6/14/2018 12:09:29.325,0.158,-0.296,-0.977
6/14/2018 12:09:29.350,0.106,-0.34,-0.979
6/14/2018 12:09:29.375,0.041,-0.355,-0.924
6/14/2018 12:09:29.400,-0.029,-0.358,-0.956
6/14/2018 12:09:29.425,-0.047,-0.346,-0.924
6/14/2018 12:09:29.450,-0.07,-0.337,-0.927
6/14/2018 12:09:29.475,-0.088,-0.343,-0.947
6/14/2018 12:09:29.500,-0.182,-0.317,-0.95
6/14/2018 12:09:29.525,-0.243,-0.314,-1.035
6/14/2018 12:09:29.550,-0.264,-0.267,-0.965
6/14/2018 12:09:29.575,-0.276,-0.217,-0.962
6/14/2018 12:09:29.600,-0.293,-0.167,-0.982
6/14/2018 12:09:29.625,-0.331,-0.114,-0.997
6/14/2018 12:09:29.650,-0.317,-0.123,-0.991
6/14/2018 12:09:29.675,-0.334,-0.073,-0.988
6/14/2018 12:09:29.700,-0.358,-0.018,-1.021
6/14/2018 12:09:29.725,-0.343,0.012,-1.009
6/14/2018 12:09:29.750,-0.27,0.152,-0.962
6/14/2018 12:09:29.775,-0.229,0.188,-0.977
6/14/2018 12:09:29.800,-0.205,0.191,-0.988
6/14/2018 12:09:29.825,-0.202,0.188,-0.962
6/14/2018 12:09:29.850,-0.205,0.211,-0.965
6/14/2018 12:09:29.875,-0.132,0.27,-0.962
6/14/2018 12:09:29.900,-0.076,0.287,-0.962
6/14/2018 12:09:29.925,0.044,0.29,-0.979
6/14/2018 12:09:29.950,0.132,0.273,-1.003
6/14/2018 12:09:29.975,0.15,0.238,-0.991
6/14/2018 12:09:30.000,0.185,0.211,-1.003
6/14/2018 12:09:30.025,0.191,0.214,-1.009
6/14/2018 12:09:30.050,0.226,0.176,-0.927
6/14/2018 12:09:30.075,0.273,0.129,-0.977
6/14/2018 12:09:30.100,0.305,0.067,-1.003
6/14/2018 12:09:30.125,0.308,0.018,-1.003
6/14/2018 12:09:30.150,0.305,-0.023,-1.003
6/14/2018 12:09:30.175,0.302,-0.053,-0.994
6/14/2018 12:09:30.200,0.308,-0.091,-0.991
6/14/2018 12:09:30.225,0.29,-0.144,-0.974
6/14/2018 12:09:30.250,0.273,-0.199,-0.956
6/14/2018 12:09:30.275,0.249,-0.252,-0.988
6/14/2018 12:09:30.300,0.232,-0.276,-1.018
6/14/2018 12:09:30.325,0.188,-0.317,-1.021
6/14/2018 12:09:30.350,0.1,-0.352,-1.026
6/14/2018 12:09:30.375,0.032,-0.361,-1.023
6/14/2018 12:09:30.400,0,-0.34,-0.933
6/14/2018 12:09:30.425,-0.026,-0.343,-0.982
6/14/2018 12:09:30.450,-0.07,-0.343,-0.953
6/14/2018 12:09:30.475,-0.129,-0.314,-0.947
6/14/2018 12:09:30.500,-0.196,-0.284,-0.95
6/14/2018 12:09:30.525,-0.214,-0.284,-0.997
6/14/2018 12:09:30.550,-0.229,-0.232,-0.956
6/14/2018 12:09:30.575,-0.261,-0.205,-0.962
6/14/2018 12:09:30.600,-0.276,-0.217,-0.956
6/14/2018 12:09:30.625,-0.317,-0.1,-0.95
6/14/2018 12:09:30.650,-0.32,-0.044,-0.962
6/14/2018 12:09:30.675,-0.331,-0.015,-0.988
6/14/2018 12:09:30.700,-0.34,0,-0.994
6/14/2018 12:09:30.725,-0.302,0.038,-1.006
6/14/2018 12:09:30.750,-0.308,0.059,-0.962
6/14/2018 12:09:30.775,-0.317,0.106,-0.979
6/14/2018 12:09:30.800,-0.246,0.191,-0.962
6/14/2018 12:09:30.825,-0.158,0.246,-0.962
6/14/2018 12:09:30.850,-0.091,0.273,-0.982
6/14/2018 12:09:30.875,-0.059,0.273,-0.991
6/14/2018 12:09:30.900,-0.023,0.27,-0.982
6/14/2018 12:09:30.925,-0.018,0.276,-0.988
6/14/2018 12:09:30.950,0.018,0.299,-0.962
6/14/2018 12:09:30.975,0.106,0.27,-0.95
6/14/2018 12:09:31.000,0.196,0.243,-0.994
6/14/2018 12:09:31.025,0.246,0.182,-0.991
6/14/2018 12:09:31.050,0.27,0.147,-0.977
6/14/2018 12:09:31.075,0.284,0.07,-0.95
6/14/2018 12:09:31.100,0.314,0.038,-0.991
6/14/2018 12:09:31.125,0.314,0.032,-0.991
6/14/2018 12:09:31.150,0.32,-0.041,-1.006
6/14/2018 12:09:31.175,0.314,-0.103,-1.006
6/14/2018 12:09:31.200,0.293,-0.144,-1.006
6/14/2018 12:09:31.225,0.279,-0.147,-0.988
6/14/2018 12:09:31.250,0.273,-0.182,-0.974
6/14/2018 12:09:31.275,0.264,-0.214,-0.977
6/14/2018 12:09:31.300,0.261,-0.255,-0.991
6/14/2018 12:09:31.325,0.214,-0.305,-1.003
6/14/2018 12:09:31.350,0.111,-0.358,-1.009
6/14/2018 12:09:31.375,0.053,-0.381,-1.047
6/14/2018 12:09:31.400,0,-0.375,-1.006
6/14/2018 12:09:31.425,-0.044,-0.358,-0.982
6/14/2018 12:09:31.450,-0.038,-0.375,-0.982
6/14/2018 12:09:31.475,-0.106,-0.331,-0.912
6/14/2018 12:09:31.500,-0.173,-0.331,-0.974
6/14/2018 12:09:31.525,-0.249,-0.282,-0.997
6/14/2018 12:09:31.550,-0.264,-0.238,-0.979
6/14/2018 12:09:31.575,-0.293,-0.214,-1.003
6/14/2018 12:09:31.600,-0.305,-0.158,-0.991
6/14/2018 12:09:31.625,-0.299,-0.106,-0.974
6/14/2018 12:09:31.650,-0.305,-0.041,-0.962
6/14/2018 12:09:31.675,-0.293,-0.009,-0.974
6/14/2018 12:09:31.700,-0.287,0.026,-0.974
6/14/2018 12:09:31.725,-0.293,0.067,-0.982
6/14/2018 12:09:31.750,-0.29,0.111,-0.968
6/14/2018 12:09:31.775,-0.211,0.191,-0.982
6/14/2018 12:09:31.800,-0.176,0.211,-0.965
6/14/2018 12:09:31.825,-0.15,0.238,-0.974
6/14/2018 12:09:31.850,-0.111,0.267,-1.003
6/14/2018 12:09:31.875,-0.018,0.299,-1.003
6/14/2018 12:09:31.900,0.038,0.287,-1.003
6/14/2018 12:09:31.925,0.091,0.258,-0.977
6/14/2018 12:09:31.950,0.126,0.232,-0.977
6/14/2018 12:09:31.975,0.129,0.24,-0.991
6/14/2018 12:09:32.000,0.17,0.229,-0.997
6/14/2018 12:09:32.025,0.258,0.17,-1.012
6/14/2018 12:09:32.050,0.331,0.155,-1.091
6/14/2018 12:09:32.075,0.299,0.047,-0.974
6/14/2018 12:09:32.100,0.32,-0.012,-0.965
6/14/2018 12:09:32.125,0.334,-0.041,-1.021
6/14/2018 12:09:32.150,0.331,-0.088,-1.018
6/14/2018 12:09:32.175,0.293,-0.138,-0.991
6/14/2018 12:09:32.200,0.273,-0.188,-0.994
6/14/2018 12:09:32.225,0.255,-0.226,-0.994
6/14/2018 12:09:32.250,0.24,-0.243,-1.012
6/14/2018 12:09:32.275,0.205,-0.27,-1.003
6/14/2018 12:09:32.300,0.196,-0.284,-1.006
6/14/2018 12:09:32.325,0.158,-0.314,-1.012
6/14/2018 12:09:32.350,0.141,-0.34,-0.991
6/14/2018 12:09:32.375,0.12,-0.367,-1.032
6/14/2018 12:09:32.400,0.015,-0.396,-1.032
6/14/2018 12:09:32.425,-0.062,-0.375,-0.994
6/14/2018 12:09:32.450,-0.126,-0.358,-1.006
6/14/2018 12:09:32.475,-0.167,-0.311,-0.974
6/14/2018 12:09:32.500,-0.199,-0.305,-1.012
6/14/2018 12:09:32.525,-0.205,-0.276,-0.974
6/14/2018 12:09:32.550,-0.235,-0.24,-0.95
6/14/2018 12:09:32.575,-0.273,-0.196,-0.965
6/14/2018 12:09:32.600,-0.302,-0.155,-0.977
6/14/2018 12:09:32.625,-0.308,-0.056,-0.968
6/14/2018 12:09:32.650,-0.317,-0.003,-0.982
6/14/2018 12:09:32.675,-0.287,0.026,-0.982
6/14/2018 12:09:32.700,-0.276,0.032,-0.956
6/14/2018 12:09:32.725,-0.276,0.07,-0.968
6/14/2018 12:09:32.750,-0.287,0.097,-0.933
6/14/2018 12:09:32.775,-0.217,0.202,-0.974
6/14/2018 12:09:32.800,-0.129,0.252,-1.009
6/14/2018 12:09:32.825,-0.088,0.246,-0.994
6/14/2018 12:09:32.850,-0.1,0.243,-0.988
6/14/2018 12:09:32.875,-0.106,0.246,-0.968
6/14/2018 12:09:32.900,-0.053,0.276,-0.974
6/14/2018 12:09:32.925,0.088,0.276,-0.979
6/14/2018 12:09:32.950,0.135,0.261,-0.988
6/14/2018 12:09:32.975,0.188,0.226,-0.994
6/14/2018 12:09:33.000,0.232,0.182,-1.006
6/14/2018 12:09:33.025,0.24,0.141,-0.953
6/14/2018 12:09:33.050,0.293,0.138,-1.062
6/14/2018 12:09:33.075,0.293,0.073,-0.997
6/14/2018 12:09:33.100,0.302,-0.012,-0.997
6/14/2018 12:09:33.125,0.32,-0.044,-0.997
6/14/2018 12:09:33.150,0.331,-0.067,-1.021
6/14/2018 12:09:33.175,0.287,-0.17,-1.018
6/14/2018 12:09:33.200,0.264,-0.191,-0.994
6/14/2018 12:09:33.225,0.264,-0.199,-0.979
6/14/2018 12:09:33.250,0.29,-0.211,-1.021
6/14/2018 12:09:33.275,0.235,-0.276,-1.021
6/14/2018 12:09:33.300,0.155,-0.331,-0.994
6/14/2018 12:09:33.325,0.129,-0.346,-0.95
6/14/2018 12:09:33.350,0.038,-0.381,-0.994
6/14/2018 12:09:33.375,0,-0.367,-0.965
6/14/2018 12:09:33.400,0.015,-0.355,-0.982
6/14/2018 12:09:33.425,-0.018,-0.361,-1.012
6/14/2018 12:09:33.450,-0.073,-0.367,-1.021
6/14/2018 12:09:33.475,-0.144,-0.305,-0.965
6/14/2018 12:09:33.500,-0.202,-0.267,-0.941
6/14/2018 12:09:33.525,-0.246,-0.27,-0.988
6/14/2018 12:09:33.550,-0.276,-0.232,-0.974
6/14/2018 12:09:33.575,-0.27,-0.185,-0.956
6/14/2018 12:09:33.600,-0.284,-0.147,-0.962
6/14/2018 12:09:33.625,-0.317,-0.117,-0.977
6/14/2018 12:09:33.650,-0.32,-0.062,-0.977
6/14/2018 12:09:33.675,-0.299,0.067,-0.953
6/14/2018 12:09:33.700,-0.29,0.056,-0.965
6/14/2018 12:09:33.725,-0.308,0.07,-0.962
6/14/2018 12:09:33.750,-0.264,0.158,-0.988
6/14/2018 12:09:33.775,-0.191,0.202,-0.965
6/14/2018 12:09:33.800,-0.158,0.211,-0.968
6/14/2018 12:09:33.825,-0.17,0.214,-0.991
6/14/2018 12:09:33.850,-0.141,0.226,-0.965
6/14/2018 12:09:33.875,-0.067,0.252,-0.977
6/14/2018 12:09:33.900,0,0.27,-0.994
6/14/2018 12:09:33.925,0.082,0.258,-0.994
6/14/2018 12:09:33.950,0.097,0.255,-1.006
6/14/2018 12:09:33.975,0.132,0.243,-0.988
6/14/2018 12:09:34.000,0.191,0.202,-0.991
6/14/2018 12:09:34.025,0.24,0.158,-0.997
6/14/2018 12:09:34.050,0.32,0.132,-1.073
6/14/2018 12:09:34.075,0.314,0.053,-1.006
6/14/2018 12:09:34.100,0.308,0,-0.997
6/14/2018 12:09:34.125,0.314,-0.029,-0.991
6/14/2018 12:09:34.150,0.328,-0.059,-1.003
6/14/2018 12:09:34.175,0.308,-0.132,-1.003
6/14/2018 12:09:34.200,0.299,-0.185,-0.997
6/14/2018 12:09:34.225,0.24,-0.273,-0.982
6/14/2018 12:09:34.250,0.211,-0.29,-0.994
6/14/2018 12:09:34.275,0.167,-0.317,-0.997
6/14/2018 12:09:34.300,0.144,-0.32,-0.988
6/14/2018 12:09:34.325,0.111,-0.343,-1.006
6/14/2018 12:09:34.350,0.097,-0.355,-0.962
6/14/2018 12:09:34.375,0,-0.384,-0.953
6/14/2018 12:09:34.400,-0.044,-0.375,-0.962
6/14/2018 12:09:34.425,-0.117,-0.361,-0.982
6/14/2018 12:09:34.450,-0.155,-0.337,-0.962
6/14/2018 12:09:34.475,-0.188,-0.326,-0.997
6/14/2018 12:09:34.500,-0.205,-0.296,-1.003
6/14/2018 12:09:34.525,-0.243,-0.276,-1.021
6/14/2018 12:09:34.550,-0.299,-0.255,-1.021
6/14/2018 12:09:34.575,-0.308,-0.185,-0.994
6/14/2018 12:09:34.600,-0.32,-0.126,-0.988
6/14/2018 12:09:34.625,-0.317,-0.085,-0.991
6/14/2018 12:09:34.650,-0.32,-0.062,-0.997
6/14/2018 12:09:34.675,-0.32,-0.026,-0.988
6/14/2018 12:09:34.700,-0.299,0.041,-0.935
6/14/2018 12:09:34.725,-0.314,0.076,-0.912
6/14/2018 12:09:34.750,-0.279,0.141,-1.003
6/14/2018 12:09:34.775,-0.214,0.205,-0.982
6/14/2018 12:09:34.800,-0.199,0.191,-0.941
6/14/2018 12:09:34.825,-0.158,0.22,-0.962
6/14/2018 12:09:34.850,-0.155,0.255,-0.977
6/14/2018 12:09:34.875,-0.091,0.282,-0.991
6/14/2018 12:09:34.900,-0.009,0.299,-0.953
6/14/2018 12:09:34.925,0.12,0.273,-0.994
6/14/2018 12:09:34.950,0.135,0.243,-0.956
6/14/2018 12:09:34.975,0.144,0.22,-0.968
6/14/2018 12:09:35.000,0.202,0.188,-0.994
6/14/2018 12:09:35.025,0.185,0.138,-0.935
6/14/2018 12:09:35.050,0.27,0.126,-1.006
6/14/2018 12:09:35.075,0.299,0.041,-1.009
6/14/2018 12:09:35.100,0.27,-0.018,-0.938
6/14/2018 12:09:35.125,0.279,-0.047,-0.947
6/14/2018 12:09:35.150,0.284,-0.1,-0.994
6/14/2018 12:09:35.175,0.287,-0.167,-1.023
6/14/2018 12:09:35.200,0.264,-0.202,-1.018
6/14/2018 12:09:35.225,0.235,-0.229,-0.977
6/14/2018 12:09:35.250,0.205,-0.305,-1.009
6/14/2018 12:09:35.275,0.185,-0.317,-0.988
6/14/2018 12:09:35.300,0.117,-0.358,-0.974
6/14/2018 12:09:35.325,0.07,-0.355,-0.968
6/14/2018 12:09:35.350,0.041,-0.367,-0.979
6/14/2018 12:09:35.375,0.029,-0.358,-0.935
6/14/2018 12:09:35.400,-0.062,-0.384,-0.991
6/14/2018 12:09:35.425,-0.097,-0.387,-0.979
6/14/2018 12:09:35.450,-0.167,-0.361,-0.979
6/14/2018 12:09:35.475,-0.232,-0.337,-1.041
6/14/2018 12:09:35.500,-0.232,-0.29,-0.988
6/14/2018 12:09:35.525,-0.246,-0.24,-0.982
6/14/2018 12:09:35.550,-0.29,-0.22,-0.997
6/14/2018 12:09:35.575,-0.293,-0.17,-0.988
6/14/2018 12:09:35.600,-0.314,-0.123,-0.988
6/14/2018 12:09:35.625,-0.34,-0.056,-0.997
6/14/2018 12:09:35.650,-0.308,-0.038,-0.988
6/14/2018 12:09:35.675,-0.308,0.026,-0.982
6/14/2018 12:09:35.700,-0.293,0.056,-0.994
6/14/2018 12:09:35.725,-0.276,0.085,-0.956
6/14/2018 12:09:35.750,-0.279,0.114,-0.977
6/14/2018 12:09:35.775,-0.273,0.17,-0.965
6/14/2018 12:09:35.800,-0.22,0.202,-0.962
6/14/2018 12:09:35.825,-0.141,0.246,-0.968
6/14/2018 12:09:35.850,-0.07,0.282,-0.982
6/14/2018 12:09:35.875,-0.015,0.282,-0.988
6/14/2018 12:09:35.900,0.032,0.267,-0.982
6/14/2018 12:09:35.925,0.012,0.284,-0.977
6/14/2018 12:09:35.950,0.067,0.282,-0.962
6/14/2018 12:09:35.975,0.141,0.273,-0.947
6/14/2018 12:09:36.000,0.202,0.226,-0.933
6/14/2018 12:09:36.025,0.273,0.167,-0.979
6/14/2018 12:09:36.050,0.305,0.091,-0.965
6/14/2018 12:09:36.075,0.317,0.009,-0.988
6/14/2018 12:09:36.100,0.314,-0.012,-0.988
6/14/2018 12:09:36.125,0.308,-0.029,-0.997
6/14/2018 12:09:36.150,0.302,-0.103,-0.994
6/14/2018 12:09:36.175,0.305,-0.138,-1.009
6/14/2018 12:09:36.200,0.258,-0.188,-0.988
6/14/2018 12:09:36.225,0.232,-0.205,-0.974
6/14/2018 12:09:36.250,0.246,-0.211,-0.979
6/14/2018 12:09:36.275,0.226,-0.261,-0.991
6/14/2018 12:09:36.300,0.214,-0.296,-0.962
6/14/2018 12:09:36.325,0.106,-0.367,-0.956
6/14/2018 12:09:36.350,0.009,-0.387,-0.979
6/14/2018 12:09:36.375,-0.012,-0.361,-0.968
6/14/2018 12:09:36.400,-0.073,-0.352,-0.977
6/14/2018 12:09:36.425,-0.091,-0.352,-0.974
6/14/2018 12:09:36.450,-0.129,-0.317,-0.927
6/14/2018 12:09:36.475,-0.205,-0.343,-1.05
6/14/2018 12:09:36.500,-0.249,-0.299,-1.009
6/14/2018 12:09:36.525,-0.235,-0.232,-0.947
6/14/2018 12:09:36.550,-0.293,-0.188,-0.977
6/14/2018 12:09:36.575,-0.305,-0.126,-0.979
6/14/2018 12:09:36.600,-0.305,-0.07,-0.974
6/14/2018 12:09:36.625,-0.314,-0.059,-0.974
6/14/2018 12:09:36.650,-0.34,-0.056,-0.994
6/14/2018 12:09:36.675,-0.355,-0.038,-0.997
6/14/2018 12:09:36.700,-0.305,0.106,-1.009
6/14/2018 12:09:36.725,-0.264,0.132,-0.95
6/14/2018 12:09:36.750,-0.226,0.188,-0.994
6/14/2018 12:09:36.775,-0.173,0.232,-0.982
6/14/2018 12:09:36.800,-0.135,0.226,-0.968
6/14/2018 12:09:36.825,-0.12,0.217,-0.968
6/14/2018 12:09:36.850,-0.106,0.243,-0.956
6/14/2018 12:09:36.875,-0.076,0.273,-0.974
6/14/2018 12:09:36.900,0.041,0.282,-0.994
6/14/2018 12:09:36.925,0.091,0.258,-0.965
6/14/2018 12:09:36.950,0.12,0.246,-0.977
6/14/2018 12:09:36.975,0.167,0.238,-0.994
6/14/2018 12:09:37.000,0.191,0.232,-1.003
6/14/2018 12:09:37.025,0.246,0.217,-0.982
6/14/2018 12:09:37.050,0.279,0.114,-0.906
6/14/2018 12:09:37.075,0.326,0.047,-0.991
6/14/2018 12:09:37.100,0.34,-0.018,-1.032
6/14/2018 12:09:37.125,0.328,-0.07,-1.026
6/14/2018 12:09:37.150,0.293,-0.114,-0.991
6/14/2018 12:09:37.175,0.284,-0.188,-0.994
6/14/2018 12:09:37.200,0.261,-0.22,-1.003
6/14/2018 12:09:37.225,0.261,-0.199,-0.988
6/14/2018 12:09:37.250,0.243,-0.229,-0.997
6/14/2018 12:09:37.275,0.199,-0.282,-0.994
6/14/2018 12:09:37.300,0.144,-0.317,-0.997
6/14/2018 12:09:37.325,0.088,-0.32,-0.938
6/14/2018 12:09:37.350,0.062,-0.34,-0.982
6/14/2018 12:09:37.375,-0.003,-0.34,-0.938
6/14/2018 12:09:37.400,-0.003,-0.346,-0.912
6/14/2018 12:09:37.425,-0.088,-0.34,-0.921
6/14/2018 12:09:37.450,-0.158,-0.287,-0.868
6/14/2018 12:09:37.475,-0.211,-0.328,-1.006
6/14/2018 12:09:37.500,-0.246,-0.267,-0.991
6/14/2018 12:09:37.525,-0.243,-0.22,-0.956
6/14/2018 12:09:37.550,-0.299,-0.173,-0.968
6/14/2018 12:09:37.575,-0.287,-0.144,-0.953
6/14/2018 12:09:37.600,-0.29,-0.076,-0.935
6/14/2018 12:09:37.625,-0.331,-0.015,-0.968
6/14/2018 12:09:37.650,-0.305,0.026,-0.968
6/14/2018 12:09:37.675,-0.293,0.032,-0.988
6/14/2018 12:09:37.700,-0.328,0.026,-1.003
6/14/2018 12:09:37.725,-0.29,0.126,-0.982
6/14/2018 12:09:37.750,-0.24,0.176,-0.977
6/14/2018 12:09:37.775,-0.188,0.232,-0.965
6/14/2018 12:09:37.800,-0.106,0.273,-0.982
6/14/2018 12:09:37.825,-0.053,0.282,-0.988
6/14/2018 12:09:37.850,-0.009,0.258,-1.003
6/14/2018 12:09:37.875,-0.012,0.261,-0.977
6/14/2018 12:09:37.900,0.015,0.276,-0.979
6/14/2018 12:09:37.925,0.062,0.27,-0.95
6/14/2018 12:09:37.950,0.147,0.258,-0.974
6/14/2018 12:09:37.975,0.235,0.196,-1.012
6/14/2018 12:09:38.000,0.249,0.132,-0.956
6/14/2018 12:09:38.025,0.302,0.126,-1.062
6/14/2018 12:09:38.050,0.293,0.059,-1.009
6/14/2018 12:09:38.075,0.299,0.009,-0.994
6/14/2018 12:09:38.100,0.32,0.018,-0.994
6/14/2018 12:09:38.125,0.331,-0.023,-1.006
6/14/2018 12:09:38.150,0.305,-0.117,-0.977
6/14/2018 12:09:38.175,0.305,-0.129,-0.988
6/14/2018 12:09:38.200,0.287,-0.176,-1.009
6/14/2018 12:09:38.225,0.273,-0.211,-1.012
6/14/2018 12:09:38.250,0.29,-0.214,-1.006
6/14/2018 12:09:38.275,0.27,-0.273,-1.012
6/14/2018 12:09:38.300,0.167,-0.358,-1.023
6/14/2018 12:09:38.325,0.07,-0.381,-1.012
6/14/2018 12:09:38.350,-0.018,-0.375,-1.003
6/14/2018 12:09:38.375,-0.029,-0.361,-0.988
6/14/2018 12:09:38.400,-0.032,-0.346,-0.979
6/14/2018 12:09:38.425,-0.059,-0.331,-0.95
6/14/2018 12:09:38.450,-0.097,-0.302,-0.88
6/14/2018 12:09:38.475,-0.129,-0.317,-0.924
6/14/2018 12:09:38.500,-0.22,-0.258,-0.947
6/14/2018 12:09:38.525,-0.276,-0.217,-1.003
6/14/2018 12:09:38.550,-0.302,-0.188,-1.003
6/14/2018 12:09:38.575,-0.293,-0.144,-0.965
6/14/2018 12:09:38.600,-0.293,-0.062,-0.953
6/14/2018 12:09:38.625,-0.305,-0.056,-0.962
6/14/2018 12:09:38.650,-0.308,-0.009,-0.953
6/14/2018 12:09:38.675,-0.293,0.076,-0.977
6/14/2018 12:09:38.700,-0.293,0.085,-0.988
6/14/2018 12:09:38.725,-0.27,0.158,-0.965
6/14/2018 12:09:38.750,-0.196,0.214,-0.979
6/14/2018 12:09:38.775,-0.15,0.22,-0.991
6/14/2018 12:09:38.800,-0.15,0.252,-0.979
6/14/2018 12:09:38.825,-0.07,0.287,-1.009
6/14/2018 12:09:38.850,0.023,0.29,-1.006
6/14/2018 12:09:38.875,0.073,0.273,-1.003
6/14/2018 12:09:38.900,0.111,0.246,-0.994
6/14/2018 12:09:38.925,0.117,0.238,-0.994
6/14/2018 12:09:38.950,0.129,0.238,-0.982
6/14/2018 12:09:38.975,0.196,0.191,-0.953
6/14/2018 12:09:39.000,0.24,0.129,-0.968
6/14/2018 12:09:39.025,0.346,0.123,-1.144
6/14/2018 12:09:39.050,0.328,0.044,-1.053
6/14/2018 12:09:39.075,0.314,-0.003,-0.994
6/14/2018 12:09:39.100,0.328,-0.044,-0.991
6/14/2018 12:09:39.125,0.343,-0.07,-1.009
6/14/2018 12:09:39.150,0.302,-0.141,-1.009
6/14/2018 12:09:39.175,0.261,-0.191,-0.988
6/14/2018 12:09:39.200,0.232,-0.232,-0.968
6/14/2018 12:09:39.225,0.235,-0.246,-0.997
6/14/2018 12:09:39.250,0.191,-0.29,-1.006
6/14/2018 12:09:39.275,0.158,-0.326,-1.012
6/14/2018 12:09:39.300,0.135,-0.337,-0.974
6/14/2018 12:09:39.325,0.12,-0.358,-0.994
6/14/2018 12:09:39.350,0.062,-0.387,-1.026
6/14/2018 12:09:39.375,-0.026,-0.419,-1.041
6/14/2018 12:09:39.400,-0.076,-0.399,-1.021
6/14/2018 12:09:39.425,-0.141,-0.381,-1.003
6/14/2018 12:09:39.450,-0.217,-0.314,-1.009
6/14/2018 12:09:39.475,-0.246,-0.267,-0.988
6/14/2018 12:09:39.500,-0.261,-0.252,-1.006
6/14/2018 12:09:39.525,-0.261,-0.255,-0.997
6/14/2018 12:09:39.550,-0.29,-0.167,-0.988
6/14/2018 12:09:39.575,-0.317,-0.129,-0.988
6/14/2018 12:09:39.600,-0.308,-0.047,-0.979
6/14/2018 12:09:39.625,-0.293,-0.018,-0.977
6/14/2018 12:09:39.650,-0.29,0,-0.979
6/14/2018 12:09:39.675,-0.284,0.044,-0.968
6/14/2018 12:09:39.700,-0.326,0.047,-0.921
6/14/2018 12:09:39.725,-0.264,0.173,-0.991
6/14/2018 12:09:39.750,-0.188,0.229,-0.965
6/14/2018 12:09:39.775,-0.147,0.229,-0.965
6/14/2018 12:09:39.800,-0.129,0.24,-0.977
6/14/2018 12:09:39.825,-0.129,0.24,-0.968
6/14/2018 12:09:39.850,-0.067,0.258,-0.974
6/14/2018 12:09:39.875,-0.023,0.276,-0.982
6/14/2018 12:09:39.900,0.088,0.29,-1.003
6/14/2018 12:09:39.925,0.167,0.267,-1.023
6/14/2018 12:09:39.950,0.211,0.217,-0.991
6/14/2018 12:09:39.975,0.229,0.185,-0.979
6/14/2018 12:09:40.000,0.284,0.132,-0.979
6/14/2018 12:09:40.025,0.29,0.097,-1.006
6/14/2018 12:09:40.050,0.299,0.073,-1.003
6/14/2018 12:09:40.075,0.299,-0.012,-0.988
6/14/2018 12:09:40.100,0.305,-0.085,-0.982
6/14/2018 12:09:40.125,0.308,-0.114,-0.997
6/14/2018 12:09:40.150,0.302,-0.158,-1.041
6/14/2018 12:09:40.175,0.249,-0.214,-0.994
6/14/2018 12:09:40.200,0.22,-0.232,-0.956
6/14/2018 12:09:40.225,0.214,-0.27,-0.974
6/14/2018 12:09:40.250,0.161,-0.317,-0.979
6/14/2018 12:09:40.275,0.111,-0.34,-0.933
6/14/2018 12:09:40.300,0.059,-0.361,-0.965
6/14/2018 12:09:40.325,0.012,-0.361,-0.962
6/14/2018 12:09:40.350,-0.026,-0.358,-0.941
6/14/2018 12:09:40.375,-0.018,-0.37,-0.968
6/14/2018 12:09:40.400,-0.07,-0.39,-1.003
6/14/2018 12:09:40.425,-0.129,-0.37,-1.003
6/14/2018 12:09:40.450,-0.235,-0.352,-1.062
6/14/2018 12:09:40.475,-0.261,-0.284,-0.994
6/14/2018 12:09:40.500,-0.255,-0.238,-0.956
6/14/2018 12:09:40.525,-0.305,-0.202,-0.979
6/14/2018 12:09:40.550,-0.299,-0.17,-0.974
6/14/2018 12:09:40.575,-0.32,-0.085,-0.962
6/14/2018 12:09:40.600,-0.346,-0.038,-0.991
6/14/2018 12:09:40.625,-0.32,0.015,-1.006
6/14/2018 12:09:40.650,-0.276,0.041,-0.968
6/14/2018 12:09:40.675,-0.284,0.076,-0.979
6/14/2018 12:09:40.700,-0.279,0.082,-0.977
6/14/2018 12:09:40.725,-0.258,0.123,-0.965
6/14/2018 12:09:40.750,-0.235,0.155,-0.977
6/14/2018 12:09:40.775,-0.246,0.173,-0.938
6/14/2018 12:09:40.800,-0.217,0.205,-0.956
6/14/2018 12:09:40.825,-0.117,0.276,-0.977
6/14/2018 12:09:40.850,-0.053,0.314,-0.979
6/14/2018 12:09:40.875,0.056,0.296,-0.994
6/14/2018 12:09:40.900,0.1,0.261,-0.968
6/14/2018 12:09:40.925,0.082,0.267,-0.95
6/14/2018 12:09:40.950,0.158,0.252,-0.982
6/14/2018 12:09:40.975,0.202,0.211,-0.95
6/14/2018 12:09:41.000,0.27,0.147,-0.979
6/14/2018 12:09:41.025,0.279,0.097,-0.953
6/14/2018 12:09:41.050,0.308,0.026,-0.988
6/14/2018 12:09:41.075,0.299,-0.026,-0.994
6/14/2018 12:09:41.100,0.29,-0.07,-0.979
6/14/2018 12:09:41.125,0.287,-0.138,-0.982
6/14/2018 12:09:41.150,0.293,-0.155,-1.018
6/14/2018 12:09:41.175,0.273,-0.196,-1.018
6/14/2018 12:09:41.200,0.217,-0.267,-0.982
6/14/2018 12:09:41.225,0.199,-0.284,-0.974
6/14/2018 12:09:41.250,0.167,-0.314,-0.979
6/14/2018 12:09:41.275,0.155,-0.32,-0.968
6/14/2018 12:09:41.300,0.059,-0.37,-0.974
6/14/2018 12:09:41.325,0.012,-0.361,-0.894
6/14/2018 12:09:41.350,-0.029,-0.355,-0.912
6/14/2018 12:09:41.375,-0.088,-0.34,-0.924
6/14/2018 12:09:41.400,-0.129,-0.331,-0.953
6/14/2018 12:09:41.425,-0.15,-0.284,-0.891
6/14/2018 12:09:41.450,-0.202,-0.311,-1.009
6/14/2018 12:09:41.475,-0.243,-0.29,-1.032
6/14/2018 12:09:41.500,-0.243,-0.229,-0.977
6/14/2018 12:09:41.525,-0.287,-0.205,-0.979
6/14/2018 12:09:41.550,-0.314,-0.158,-0.994
6/14/2018 12:09:41.575,-0.32,-0.1,-0.982
6/14/2018 12:09:41.600,-0.328,-0.07,-0.982
6/14/2018 12:09:41.625,-0.358,-0.067,-1.006
6/14/2018 12:09:41.650,-0.343,-0.018,-1.012
6/14/2018 12:09:41.675,-0.305,0.082,-0.956
6/14/2018 12:09:41.700,-0.293,0.114,-0.997
6/14/2018 12:09:41.725,-0.226,0.217,-0.991
6/14/2018 12:09:41.750,-0.141,0.255,-0.968
6/14/2018 12:09:41.775,-0.091,0.229,-0.968
6/14/2018 12:09:41.800,-0.117,0.22,-0.962
6/14/2018 12:09:41.825,-0.132,0.243,-0.982
6/14/2018 12:09:41.850,-0.085,0.27,-0.956
6/14/2018 12:09:41.875,-0.012,0.284,-0.974
6/14/2018 12:09:41.900,0.062,0.258,-0.938
6/14/2018 12:09:41.925,0.144,0.24,-0.965
6/14/2018 12:09:41.950,0.161,0.246,-0.968
6/14/2018 12:09:41.975,0.173,0.217,-0.956
6/14/2018 12:09:42.000,0.279,0.167,-1.026
6/14/2018 12:09:42.025,0.264,0.138,-0.941
6/14/2018 12:09:42.050,0.29,0.062,-0.95
6/14/2018 12:09:42.075,0.328,-0.003,-0.988
6/14/2018 12:09:42.100,0.317,-0.067,-0.979
6/14/2018 12:09:42.125,0.29,-0.141,-0.968
6/14/2018 12:09:42.150,0.284,-0.182,-0.997
6/14/2018 12:09:42.175,0.29,-0.185,-1.018
6/14/2018 12:09:42.200,0.261,-0.22,-1.003
6/14/2018 12:09:42.225,0.258,-0.258,-0.997
6/14/2018 12:09:42.250,0.202,-0.317,-1.021
6/14/2018 12:09:42.275,0.114,-0.343,-1.012
6/14/2018 12:09:42.300,0.059,-0.352,-0.968
6/14/2018 12:09:42.325,0.018,-0.352,-0.982
6/14/2018 12:09:42.350,0.026,-0.358,-0.979
6/14/2018 12:09:42.375,-0.067,-0.346,-0.938
6/14/2018 12:09:42.400,-0.097,-0.337,-0.903
6/14/2018 12:09:42.425,-0.158,-0.299,-0.889
6/14/2018 12:09:42.450,-0.196,-0.352,-1.038
6/14/2018 12:09:42.475,-0.255,-0.255,-0.991
6/14/2018 12:09:42.500,-0.27,-0.214,-0.979
6/14/2018 12:09:42.525,-0.299,-0.191,-0.982
6/14/2018 12:09:42.550,-0.326,-0.141,-0.994
6/14/2018 12:09:42.575,-0.299,-0.07,-0.965
6/14/2018 12:09:42.600,-0.305,-0.038,-0.968
6/14/2018 12:09:42.625,-0.34,-0.012,-0.982
6/14/2018 12:09:42.650,-0.293,0.041,-0.994
6/14/2018 12:09:42.675,-0.287,0.073,-0.988
6/14/2018 12:09:42.700,-0.284,0.103,-0.977
6/14/2018 12:09:42.725,-0.279,0.141,-0.979
6/14/2018 12:09:42.750,-0.243,0.191,-0.968
6/14/2018 12:09:42.775,-0.132,0.27,-0.977
6/14/2018 12:09:42.800,-0.047,0.29,-0.991
6/14/2018 12:09:42.825,-0.015,0.273,-0.991
6/14/2018 12:09:42.850,0.032,0.273,-0.962
6/14/2018 12:09:42.875,0.059,0.255,-0.962
6/14/2018 12:09:42.900,0.091,0.246,-0.968
6/14/2018 12:09:42.925,0.12,0.24,-0.965
6/14/2018 12:09:42.950,0.161,0.229,-0.965
6/14/2018 12:09:42.975,0.205,0.176,-0.933
6/14/2018 12:09:43.000,0.299,0.144,-1.05
6/14/2018 12:09:43.025,0.326,0.097,-1.041
6/14/2018 12:09:43.050,0.314,0.059,-1.032
6/14/2018 12:09:43.075,0.328,0.018,-1.038
6/14/2018 12:09:43.100,0.334,0.009,-1.012
6/14/2018 12:09:43.125,0.34,-0.047,-0.956
6/14/2018 12:09:43.150,0.328,-0.155,-0.982
6/14/2018 12:09:43.175,0.276,-0.232,-1.006
6/14/2018 12:09:43.200,0.255,-0.226,-1.012
6/14/2018 12:09:43.225,0.211,-0.252,-1.003
6/14/2018 12:09:43.250,0.211,-0.276,-1.003
6/14/2018 12:09:43.275,0.155,-0.328,-0.994
6/14/2018 12:09:43.300,0.147,-0.337,-0.974
6/14/2018 12:09:43.325,0.018,-0.381,-1.041
6/14/2018 12:09:43.350,-0.032,-0.372,-0.979
6/14/2018 12:09:43.375,-0.067,-0.352,-0.974
6/14/2018 12:09:43.400,-0.114,-0.32,-0.941
6/14/2018 12:09:43.425,-0.158,-0.29,-0.912
6/14/2018 12:09:43.450,-0.176,-0.331,-0.991
6/14/2018 12:09:43.475,-0.235,-0.258,-0.941
6/14/2018 12:09:43.500,-0.249,-0.22,-0.947
6/14/2018 12:09:43.525,-0.302,-0.173,-0.974
6/14/2018 12:09:43.550,-0.331,-0.106,-0.979
6/14/2018 12:09:43.575,-0.302,-0.059,-0.956
6/14/2018 12:09:43.600,-0.302,-0.003,-0.974
6/14/2018 12:09:43.625,-0.32,0.012,-0.997
6/14/2018 12:09:43.650,-0.302,0.032,-0.994
6/14/2018 12:09:43.675,-0.276,0.082,-0.979
6/14/2018 12:09:43.700,-0.258,0.129,-0.956
6/14/2018 12:09:43.725,-0.214,0.182,-0.977
6/14/2018 12:09:43.750,-0.173,0.199,-0.991
6/14/2018 12:09:43.775,-0.158,0.229,-0.965
6/14/2018 12:09:43.800,-0.126,0.261,-0.979
6/14/2018 12:09:43.825,-0.041,0.282,-0.965
6/14/2018 12:09:43.850,0.018,0.284,-0.991
6/14/2018 12:09:43.875,0.106,0.27,-0.988
6/14/2018 12:09:43.900,0.158,0.255,-1.035
6/14/2018 12:09:43.925,0.161,0.217,-0.988
6/14/2018 12:09:43.950,0.185,0.188,-0.95
6/14/2018 12:09:43.975,0.188,0.167,-0.921
6/14/2018 12:09:44.000,0.317,0.147,-1.091
6/14/2018 12:09:44.025,0.34,0.053,-1.062
6/14/2018 12:09:44.050,0.314,-0.003,-1.018
6/14/2018 12:09:44.075,0.314,-0.009,-1.006
6/14/2018 12:09:44.100,0.328,-0.047,-1.009
6/14/2018 12:09:44.125,0.302,-0.067,-0.982
6/14/2018 12:09:44.150,0.287,-0.132,-0.974
6/14/2018 12:09:44.175,0.314,-0.129,-0.994
6/14/2018 12:09:44.200,0.305,-0.173,-1.009
6/14/2018 12:09:44.225,0.249,-0.246,-1.009
6/14/2018 12:09:44.250,0.191,-0.305,-0.997
6/14/2018 12:09:44.275,0.147,-0.328,-0.968
6/14/2018 12:09:44.300,0.106,-0.355,-1.032
6/14/2018 12:09:44.325,0.041,-0.361,-1.047
6/14/2018 12:09:44.350,0.041,-0.358,-0.965
6/14/2018 12:09:44.375,-0.032,-0.358,-0.979
6/14/2018 12:09:44.400,-0.1,-0.34,-0.941
6/14/2018 12:09:44.425,-0.155,-0.276,-0.883
6/14/2018 12:09:44.450,-0.199,-0.317,-0.991
6/14/2018 12:09:44.475,-0.258,-0.255,-1.018
6/14/2018 12:09:44.500,-0.264,-0.202,-0.956
6/14/2018 12:09:44.525,-0.279,-0.167,-0.947
6/14/2018 12:09:44.550,-0.317,-0.1,-0.965
6/14/2018 12:09:44.575,-0.299,-0.082,-0.965
6/14/2018 12:09:44.600,-0.293,0,-0.962
6/14/2018 12:09:44.625,-0.299,0.029,-0.988
6/14/2018 12:09:44.650,-0.328,-0.003,-0.991
6/14/2018 12:09:44.675,-0.29,0.1,-0.977
6/14/2018 12:09:44.700,-0.29,0.123,-0.953
6/14/2018 12:09:44.725,-0.229,0.188,-0.979
6/14/2018 12:09:44.750,-0.155,0.261,-0.982
6/14/2018 12:09:44.775,-0.088,0.273,-0.977
6/14/2018 12:09:44.800,-0.029,0.267,-0.991
6/14/2018 12:09:44.825,0.003,0.261,-0.982
6/14/2018 12:09:44.850,0.018,0.255,-0.988
6/14/2018 12:09:44.875,0.023,0.261,-0.977
6/14/2018 12:09:44.900,0.053,0.273,-0.965
6/14/2018 12:09:44.925,0.17,0.243,-0.979
6/14/2018 12:09:44.950,0.24,0.196,-1.009
6/14/2018 12:09:44.975,0.24,0.091,-0.979
6/14/2018 12:09:45.000,0.308,0.106,-1.047
6/14/2018 12:09:45.025,0.331,0.082,-1.067
6/14/2018 12:09:45.050,0.32,0.026,-1.023
6/14/2018 12:09:45.075,0.326,-0.009,-0.997
6/14/2018 12:09:45.100,0.358,-0.012,-1.012
6/14/2018 12:09:45.125,0.326,-0.147,-0.994
6/14/2018 12:09:45.150,0.27,-0.202,-0.956
6/14/2018 12:09:45.175,0.22,-0.246,-0.941
6/14/2018 12:09:45.200,0.243,-0.217,-0.977
6/14/2018 12:09:45.225,0.255,-0.238,-0.997
6/14/2018 12:09:45.250,0.22,-0.273,-0.994
6/14/2018 12:09:45.275,0.196,-0.32,-1.035
6/14/2018 12:09:45.300,0.103,-0.355,-1.073
6/14/2018 12:09:45.325,0.047,-0.367,-1.023
6/14/2018 12:09:45.350,0.015,-0.387,-1.097
6/14/2018 12:09:45.375,-0.012,-0.381,-1.041
6/14/2018 12:09:45.400,-0.047,-0.37,-1.003
6/14/2018 12:09:45.425,-0.117,-0.302,-0.883
6/14/2018 12:09:45.450,-0.167,-0.302,-0.935
6/14/2018 12:09:45.475,-0.27,-0.255,-0.994
6/14/2018 12:09:45.500,-0.32,-0.202,-1.003
6/14/2018 12:09:45.525,-0.284,-0.173,-0.956
6/14/2018 12:09:45.550,-0.32,-0.103,-0.974
6/14/2018 12:09:45.575,-0.317,-0.085,-0.977
6/14/2018 12:09:45.600,-0.284,-0.003,-0.95
6/14/2018 12:09:45.625,-0.314,0.009,-0.979
6/14/2018 12:09:45.650,-0.328,0.067,-0.968
6/14/2018 12:09:45.675,-0.255,0.152,-0.982
6/14/2018 12:09:45.700,-0.202,0.199,-0.95
6/14/2018 12:09:45.725,-0.173,0.226,-0.977
6/14/2018 12:09:45.750,-0.155,0.226,-1.006
6/14/2018 12:09:45.775,-0.1,0.252,-0.982
6/14/2018 12:09:45.800,-0.067,0.267,-0.988
6/14/2018 12:09:45.825,-0.003,0.282,-0.988
6/14/2018 12:09:45.850,0.085,0.27,-1.003
6/14/2018 12:09:45.875,0.132,0.243,-0.982
6/14/2018 12:09:45.900,0.147,0.229,-0.982
6/14/2018 12:09:45.925,0.185,0.202,-0.988
6/14/2018 12:09:45.950,0.214,0.158,-0.962
6/14/2018 12:09:45.975,0.249,0.132,-0.982
6/14/2018 12:09:46.000,0.279,0.062,-1.006
6/14/2018 12:09:46.025,0.299,0.041,-1.003
6/14/2018 12:09:46.050,0.299,-0.009,-0.982
6/14/2018 12:09:46.075,0.305,-0.023,-0.997
6/14/2018 12:09:46.100,0.308,-0.047,-1.009
6/14/2018 12:09:46.125,0.331,-0.056,-1.006
6/14/2018 12:09:46.150,0.326,-0.106,-0.982
6/14/2018 12:09:46.175,0.308,-0.167,-0.962
6/14/2018 12:09:46.200,0.24,-0.276,-0.988
6/14/2018 12:09:46.225,0.188,-0.302,-0.979
6/14/2018 12:09:46.250,0.167,-0.317,-0.965
6/14/2018 12:09:46.275,0.082,-0.37,-0.997
6/14/2018 12:09:46.300,0.076,-0.358,-1.009
6/14/2018 12:09:46.325,0.026,-0.37,-1.035
6/14/2018 12:09:46.350,-0.026,-0.387,-1.038
6/14/2018 12:09:46.375,-0.07,-0.375,-1.035
6/14/2018 12:09:46.400,-0.111,-0.346,-0.988
6/14/2018 12:09:46.425,-0.176,-0.299,-0.979
6/14/2018 12:09:46.450,-0.196,-0.273,-0.974
6/14/2018 12:09:46.475,-0.211,-0.252,-0.974
6/14/2018 12:09:46.500,-0.229,-0.217,-0.941
6/14/2018 12:09:46.525,-0.264,-0.173,-0.938
6/14/2018 12:09:46.550,-0.328,-0.073,-0.968
6/14/2018 12:09:46.575,-0.308,-0.041,-0.968
6/14/2018 12:09:46.600,-0.293,0.015,-0.962
6/14/2018 12:09:46.625,-0.293,0.026,-0.968
6/14/2018 12:09:46.650,-0.299,0.044,-0.974
6/14/2018 12:09:46.675,-0.299,0.085,-0.968
6/14/2018 12:09:46.700,-0.243,0.188,-0.979
6/14/2018 12:09:46.725,-0.17,0.246,-0.965
6/14/2018 12:09:46.750,-0.117,0.267,-0.991
6/14/2018 12:09:46.775,-0.07,0.282,-1.003
6/14/2018 12:09:46.800,-0.056,0.258,-0.974
6/14/2018 12:09:46.825,-0.023,0.243,-0.974
6/14/2018 12:09:46.850,0.012,0.255,-0.968
6/14/2018 12:09:46.875,0.073,0.261,-0.997
6/14/2018 12:09:46.900,0.15,0.258,-1.018
6/14/2018 12:09:46.925,0.205,0.214,-1.009
6/14/2018 12:09:46.950,0.249,0.173,-0.994
6/14/2018 12:09:46.975,0.287,0.155,-1.026
6/14/2018 12:09:47.000,0.29,0.085,-0.962
6/14/2018 12:09:47.025,0.305,0.032,-0.974
6/14/2018 12:09:47.050,0.314,-0.026,-1.003
6/14/2018 12:09:47.075,0.326,-0.062,-1.018
6/14/2018 12:09:47.100,0.293,-0.129,-1.006
6/14/2018 12:09:47.125,0.279,-0.176,-1.009
6/14/2018 12:09:47.150,0.261,-0.199,-0.994
6/14/2018 12:09:47.175,0.246,-0.202,-0.977
6/14/2018 12:09:47.200,0.264,-0.217,-0.988
6/14/2018 12:09:47.225,0.261,-0.261,-1.003
6/14/2018 12:09:47.250,0.167,-0.343,-1.006
6/14/2018 12:09:47.275,0.088,-0.367,-0.977
6/14/2018 12:09:47.300,0.026,-0.375,-0.968
6/14/2018 12:09:47.325,-0.015,-0.375,-1.003
6/14/2018 12:09:47.350,-0.012,-0.361,-0.968
6/14/2018 12:09:47.375,-0.041,-0.367,-1.006
6/14/2018 12:09:47.400,-0.097,-0.37,-0.979
6/14/2018 12:09:47.425,-0.191,-0.328,-0.991
6/14/2018 12:09:47.450,-0.258,-0.24,-0.965
6/14/2018 12:09:47.475,-0.264,-0.238,-0.979
6/14/2018 12:09:47.500,-0.305,-0.217,-1.006
6/14/2018 12:09:47.525,-0.299,-0.158,-0.974
6/14/2018 12:09:47.550,-0.305,-0.111,-0.962
6/14/2018 12:09:47.575,-0.331,-0.047,-0.991
6/14/2018 12:09:47.600,-0.314,-0.023,-0.979
6/14/2018 12:09:47.625,-0.29,0.026,-0.962
6/14/2018 12:09:47.650,-0.284,0.097,-0.982
6/14/2018 12:09:47.675,-0.27,0.123,-0.938
6/14/2018 12:09:47.700,-0.226,0.161,-0.953
6/14/2018 12:09:47.725,-0.211,0.196,-0.982
6/14/2018 12:09:47.750,-0.202,0.217,-0.997
6/14/2018 12:09:47.775,-0.155,0.246,-0.977
6/14/2018 12:09:47.800,-0.097,0.267,-0.953
6/14/2018 12:09:47.825,-0.015,0.282,-0.974
6/14/2018 12:09:47.850,0.059,0.267,-0.988
6/14/2018 12:09:47.875,0.106,0.258,-0.991
6/14/2018 12:09:47.900,0.114,0.252,-0.979
6/14/2018 12:09:47.925,0.182,0.22,-0.991
6/14/2018 12:09:47.950,0.235,0.158,-0.953
6/14/2018 12:09:47.975,0.302,0.147,-1.059
6/14/2018 12:09:48.000,0.29,0.076,-0.977
6/14/2018 12:09:48.025,0.299,-0.003,-0.965
6/14/2018 12:09:48.050,0.305,-0.038,-0.979
6/14/2018 12:09:48.075,0.314,-0.088,-0.982
6/14/2018 12:09:48.100,0.29,-0.138,-0.988
6/14/2018 12:09:48.125,0.261,-0.229,-1.006
6/14/2018 12:09:48.150,0.226,-0.261,-0.997
6/14/2018 12:09:48.175,0.214,-0.258,-1.006
6/14/2018 12:09:48.200,0.173,-0.299,-1.003
6/14/2018 12:09:48.225,0.135,-0.314,-0.994
6/14/2018 12:09:48.250,0.144,-0.311,-0.979
6/14/2018 12:09:48.275,0.111,-0.346,-0.997
6/14/2018 12:09:48.300,0.088,-0.37,-0.997
6/14/2018 12:09:48.325,-0.018,-0.387,-0.979
6/14/2018 12:09:48.350,-0.067,-0.372,-0.935
6/14/2018 12:09:48.375,-0.144,-0.355,-0.991
6/14/2018 12:09:48.400,-0.176,-0.314,-0.962
6/14/2018 12:09:48.425,-0.191,-0.314,-0.994
6/14/2018 12:09:48.450,-0.246,-0.287,-1.018
6/14/2018 12:09:48.475,-0.273,-0.27,-1.006
6/14/2018 12:09:48.500,-0.308,-0.238,-1.021
6/14/2018 12:09:48.525,-0.326,-0.176,-0.991
6/14/2018 12:09:48.550,-0.326,-0.073,-0.979
6/14/2018 12:09:48.575,-0.32,-0.015,-0.979
6/14/2018 12:09:48.600,-0.308,0.023,-1.003
6/14/2018 12:09:48.625,-0.287,0.018,-0.965
6/14/2018 12:09:48.650,-0.29,0.056,-0.938
6/14/2018 12:09:48.675,-0.287,0.091,-0.988
6/14/2018 12:09:48.700,-0.229,0.199,-0.95
6/14/2018 12:09:48.725,-0.161,0.214,-0.982
6/14/2018 12:09:48.750,-0.161,0.214,-0.974
6/14/2018 12:09:48.775,-0.17,0.217,-0.965
6/14/2018 12:09:48.800,-0.147,0.243,-0.956
6/14/2018 12:09:48.825,-0.041,0.276,-0.979
6/14/2018 12:09:48.850,0.009,0.287,-0.974
6/14/2018 12:09:48.875,0.091,0.273,-0.974
6/14/2018 12:09:48.900,0.15,0.238,-0.941
6/14/2018 12:09:48.925,0.185,0.211,-0.947
6/14/2018 12:09:48.950,0.211,0.167,-0.927
6/14/2018 12:09:48.975,0.299,0.155,-1.062
6/14/2018 12:09:49.000,0.279,0.082,-0.994
6/14/2018 12:09:49.025,0.287,-0.009,-0.977
6/14/2018 12:09:49.050,0.305,-0.053,-0.977
6/14/2018 12:09:49.075,0.305,-0.082,-0.991
6/14/2018 12:09:49.100,0.279,-0.182,-0.997
6/14/2018 12:09:49.125,0.264,-0.188,-1.006
6/14/2018 12:09:49.150,0.249,-0.199,-1.006
6/14/2018 12:09:49.175,0.264,-0.214,-1.012
6/14/2018 12:09:49.200,0.202,-0.305,-0.991
6/14/2018 12:09:49.225,0.144,-0.358,-0.968
6/14/2018 12:09:49.250,0.1,-0.37,-0.962
6/14/2018 12:09:49.275,0.044,-0.367,-0.977
